File: SiO 14.xy
# Created by:        SpecsLab Prodigy, Version 4.50.2-r79252
#
# XY-Serializer Export Settings:
#   Comment Prefix:           #
#   Output meta data:         yes
#   Energy Axis:              Binding Energy
#   Count Rate:               Counts per Second
#   Separate Scan Data:       no
#   Separate Channel Data:    no
#   External Channel Data:    yes
#   Transmission Function:    no
#   ErrorBar:                 no
#   Operation Results:        yes
#   Time Zone Format:         UTC
#
# Group:             Spectrum Group 25
#
# Region:            O1s
# Acquisition Date:  10/25/19 18:22:51 UTC
# Analysis Method:   XPS
# Analyzer:          Phoibos
# Analyzer Lens:     MediumArea:1.5kV
# Analyzer Slit:     5:7x20\B:open
# Scan Mode:         FixedAnalyzerTransmission
# Curves/Scan:       1
# Values/Curve:      491
# Dwell Time:        0.1
# Excitation Energy: 1486.71
# Binding Energy:    570
# Pass Energy:       10
# Bias Voltage:      90
# Detector Voltage:  1900
# Eff. Workfunction: 4.395
# Source:            Focus
# Comment:
#
# Cycle: 0
# Number of Scans: 12
#
# Cycle: 0, Curve: 0
# Acquisition Date: 10/25/19 18:22:51 UTC
#
# ColumnLabels: energy counts/s
#
570  1654.3
569.9  1601.95
569.8  1655.21
569.7  1590.22
569.6  1628.92
569.5  1620.62
569.4  1666.53
569.3  1610.49
569.2  1618.834
569.1  1621.71
569  1644.73
568.9  1660.85
568.8  1617.75
568.7  1563.52
568.6  1557.94
568.5  1617.43
568.4  1664.13
568.3  1611.76
568.2  1556.44
568.1  1514.28
568  1569.11
567.9  1596.043
567.8  1620.95
567.7  1611.97
567.6  1657.78
567.5  1588.02
567.4  1592.45
567.3  1624.16
567.2  1569.38
567.1  1590.21
567  1570.312
566.9  1597.76
566.8  1614.46
566.7  1635.31
566.6  1649.99
566.5  1665.43
566.4  1740.46
566.3  1683.12
566.2  1638.19
566.1  1661.22
566  1744.34
565.9  1706.3
565.8  1675.71
565.7  1654.74
565.6  1638.889
565.5  1700.3
565.4  1765.31
565.3  1769.04
565.2  1706.85
565.1  1705.97
565  1752.87
564.9  1672.68
564.8  1754.64
564.7  1768.19
564.6  1736.08
564.5  1840.32
564.4  1785.43
564.3  1786.372
564.2  1837.66
564.1  1791.82
564  1810.31
563.9  1852.4
563.8  1775.43
563.7  1803.56
563.6  1773.11
563.5  1812.8
563.4  1780.11
563.3  1771.87
563.2  1878.01
563.1  1863.15
563  1858.04
562.9  1788.111
562.8  1883.65
562.7  1885.43
562.6  1848.38
562.5  1848.92
562.4  1951.99
562.3  1937
562.2  1846.15
562.1  1877.45
562  1902.24
561.9  1930.23
561.8  1931.96
561.7  1957.8
561.6  1947.37
561.5  1990.57
561.4  2004.97
561.3  2026.47
561.2  2007.17
561.1  2085.84
561  2062.64
560.9  2082.716
560.8  2073.42
560.7  2050.87
560.6  1958.47
560.5  2048.27
560.4  1992.653
560.3  2064.06
560.2  2036.87
560.1  2039.79
560  2041.56
559.9  2041.73
559.8  2033.56
559.7  2033.91
559.6  2055.53
559.5  2020.05
559.4  2049.57
559.3  2057.75
559.2  2066.74
559.1  2056.36
559  2060.61
558.9  2077.57
558.8  2082.723
558.7  2136.73
558.6  2103.36
558.5  2110.2
558.4  2098.59
558.3  2039
558.2  2017.6
558.1  2059.48
558  2098.43
557.9  2098.13
557.8  2106.96
557.7  2132.87
557.6  2186.13
557.5  2179.74
557.4  2157.53
557.3  2252.15
557.2  2179.876
557.1  2219.53
557  2268.67
556.9  2246.71
556.8  2214.93
556.7  2250.19
556.6  2208.15
556.5  2304.84
556.4  2311.11
556.3  2310.17
556.2  2230.3
556.1  2226.43
556  2240.53
555.9  2159.28
555.8  2241.71
555.7  2261.16
555.6  2177.88
555.5  2161.1
555.4  2079.77
555.3  2047.17
555.2  2071.55
555.1  2055.67
555  1933.15
554.9  1962
554.8  1943.337
554.7  1969.05
554.6  1993.05
554.5  1946.61
554.4  1938.99
554.3  1936.03
554.2  1896.93
554.1  1922.47
554  1889.99
553.9  1870.06
553.8  1827.5
553.7  1883.58
553.6  1839.28
553.5  1854.37
553.4  1803.78
553.3  1832.26
553.2  1758.96
553.1  1765.6
553  1749.65
552.9  1753.993
552.8  1728.42
552.7  1646.02
552.6  1699.8
552.5  1662.3
552.4  1697.99
552.3  1685.21
552.2  1622.703
552.1  1631
552  1633.98
551.9  1599.83
551.8  1629.03
551.7  1608.94
551.6  1639.929
551.5  1601.75
551.4  1601.9
551.3  1535.03
551.2  1563.73
551.1  1636.19
551  1599.24
550.9  1568.27
550.8  1596.32
550.7  1530.67
550.6  1497.47
550.5  1481.113
550.4  1586.22
550.3  1575.96
550.2  1576.85
550.1  1673.63
550  1558.09
549.9  1576.65
549.8  1590.56
549.7  1612.31
549.6  1593.94
549.5  1554.72
549.4  1548.233
549.3  1563.06
549.2  1543.09
549.1  1536.65
549  1518.6
548.9  1497.12
548.8  1476.31
548.7  1536.4
548.6  1493.46
548.5  1455.381
548.4  1475
548.3  1451.092
548.2  1465.78
548.1  1475.64
548  1417.97
547.9  1443.53
547.8  1411.38
547.7  1425.358
547.6  1429.51
547.5  1397.49
547.4  1361.43
547.3  1370.199
547.2  1384.883
547.1  1367.38
547  1375.8
546.9  1358.46
546.8  1344.42
546.7  1394.91
546.6  1359.62
546.5  1310.59
546.4  1334.17
546.3  1308.99
546.2  1317.51
546.1  1362.11
546  1379.69
545.9  1306.24
545.8  1293.81
545.7  1291.17
545.6  1286.65
545.5  1285.93
545.4  1234.35
545.3  1257.38
545.2  1209.69
545.1  1203.96
545  1130.97
544.9  1151.03
544.8  1151.9
544.7  1162.39
544.6  1128.24
544.5  1071.38
544.4  1029.58
544.3  1027.09
544.2  1015.37
544.1  985.432
544  917.377
543.9  942.594
543.8  925.178
543.7  869.272
543.6  933.882
543.5  928.826
543.4  870.898
543.3  895.187
543.2  867.314
543.1  873.258
543  839.304
542.9  831.715
542.8  814.804
542.7  823.904
542.6  828.804
542.5  832.406
542.4  788.332
542.3  798.873
542.2  795.988
542.1  816.949
542  833.592
541.9  783.226
541.8  781.09
541.7  803.898
541.6  805.853
541.5  772.364
541.4  812.631
541.3  797.5743
541.2  785.637
541.1  782.317
541  799.191
540.9  806.018
540.8  765.148
540.7  803.021
540.6  771.301
540.5  816.773
540.4  826.933
540.3  766.662
540.2  758.287
540.1  801.62
540  802.196
539.9  779.759
539.8  783.635
539.7  773.327
539.6  785.9
539.5  774.419
539.4  771.915
539.3  773.6937
539.2  797.6057
539.1  787.565
539  793.5
538.9  847.748
538.8  760.775
538.7  784.529
538.6  802.017
538.5  769.792
538.4  821.089
538.3  810.744
538.2  796.3319
538.1  838.909
538  819.503
537.9  850.318
537.8  803.891
537.7  805.901
537.6  808.121
537.5  867.682
537.4  871.164
537.3  867.577
537.2  891.196
537.1  873.905
537  896.127
536.9  901.043
536.8  902.359
536.7  916.654
536.6  962.047
536.5  1037.088
536.4  1099.9
536.3  1146.15
536.2  1222.04
536.1  1405.209
536  1554.11
535.9  1753.13
535.8  2042.13
535.7  2394.05
535.6  2875.49
535.5  3436.89
535.4  4115.84
535.3  5158.09
535.2  6258.7
535.1  7648.92
535  9216.99
534.9  10834.468
534.8  12450.2
534.7  14270.439
534.6  16184.031
534.5  17641.971
534.4  18691.124
534.3  19508.76
534.2  19910.868
534.1  19731.649
534  18642.622
533.9  17224.265
533.8  15439.942
533.7  13551.31
533.6  11440.2
533.5  9802.94
533.4  7842.34
533.3  6320.32
533.2  5084.93
533.1  4148.07
533  3265.62
532.9  2714.99
532.8  2241.48
532.7  1974.46
532.6  1717.07
532.5  1541.71
532.4  1399.86
532.3  1337.38
532.2  1254.5
532.1  1212.69
532  1077.94
531.9  1072.74
531.8  1038.75
531.7  1017.6
531.6  982.278
531.5  904.488
531.4  890.479
531.3  892.216
531.2  841.043
531.1  879.368
531  896.383
530.9  834.689
530.8  803.3992
530.7  785.108
530.6  778.315
530.5  787.448
530.4  789.889
530.3  772.221
530.2  753.093
530.1  760.107
530  781.875
529.9  759.162
529.8  740.461
529.7  773.771
529.6  746.153
529.5  777.422
529.4  752.509
529.3  719.3803
529.2  743.272
529.1  771.531
529  762.044
528.9  732.562
528.8  719.139
528.7  709.959
528.6  737.561
528.5  709.54
528.4  699.807
528.3  699.351
528.2  694.844
528.1  720.565
528  724.532
527.9  729.843
527.8  738.855
527.7  754.284
527.6  727.332
527.5  723.022
527.4  751.515
527.3  734.31
527.2  706.579
527.1  719.307
527  704.145
526.9  655.291
526.8  687.289
526.7  682.099
526.6  702.613
526.5  682.634
526.4  696.533
526.3  694.6138
526.2  690.198
526.1  669.347
526  689.586
525.9  697.433
525.8  652.8
525.7  662.333
525.6  705.8
525.5  752.297
525.4  728.959
525.3  690.065
525.2  675.536
525.1  709.415
525  685.536
524.9  681.163
524.8  710.272
524.7  723.555
524.6  737.2555
524.5  721.52
524.4  679.0941
524.3  664.727
524.2  679.507
524.1  671.608
524  686.275
523.9  697.154
523.8  683.474
523.7  701.423
523.6  693.771
523.5  670.913
523.4  699.288
523.3  676.38
523.2  679.548
523.1  679.3
523  709.065
522.9  719.693
522.8  724.002
522.7  725.982
522.6  672.801
522.5  701.193
522.4  702.799
522.3  726.15
522.2  708.392
522.1  697.782
522  732.049
521.9  640.571
521.8  673.209
521.7  696.28
521.6  701.673
521.5  712.497
521.4  662.146
521.3  647.488
521.2  683.235
521.1  690.814
521  681.801