File: SiO 23(O).xy
# Created by:        SpecsLab Prodigy, Version 4.50.2-r79252
#
# XY-Serializer Export Settings:
#   Comment Prefix:           #
#   Output meta data:         yes
#   Energy Axis:              Binding Energy
#   Count Rate:               Counts per Second
#   Separate Scan Data:       no
#   Separate Channel Data:    no
#   External Channel Data:    yes
#   Transmission Function:    no
#   ErrorBar:                 no
#   Operation Results:        yes
#   Time Zone Format:         UTC
#
# Group:             Spectrum Group 55
#
# Region:            O1s
# Acquisition Date:  10/25/19 19:49:46 UTC
# Analysis Method:   XPS
# Analyzer:          Phoibos
# Analyzer Lens:     MediumArea:1.5kV
# Analyzer Slit:     5:7x20\B:open
# Scan Mode:         FixedAnalyzerTransmission
# Curves/Scan:       1
# Values/Curve:      491
# Dwell Time:        0.1
# Excitation Energy: 1486.71
# Binding Energy:    570
# Pass Energy:       10
# Bias Voltage:      90
# Detector Voltage:  1900
# Eff. Workfunction: 4.395
# Source:            Focus
# Comment:
#
# Cycle: 0
# Number of Scans: 12
#
# Cycle: 0, Curve: 0
# Acquisition Date: 10/25/19 19:49:46 UTC
#
# ColumnLabels: energy counts/s
#
570  969.377
569.9  1016.64
569.8  1003.5
569.7  999.289
569.6  1024.96
569.5  949.932
569.4  986.184
569.3  939.258
569.2  995.874
569.1  1002.775
569  1036.72
568.9  1026.57
568.8  1018.58
568.7  1014.66
568.6  1007.79
568.5  993.126
568.4  993.023
568.3  969.198
568.2  981.236
568.1  1009.37
568  1010.68
567.9  983.161
567.8  998.214
567.7  985.778
567.6  992.893
567.5  1018.929
567.4  1009.1
567.3  970.771
567.2  988.177
567.1  986.083
567  1009.7
566.9  1017.86
566.8  1035.09
566.7  1026.924
566.6  1044.24
566.5  1029.068
566.4  1046.45
566.3  1062.64
566.2  1025.79
566.1  1054.58
566  1071.608
565.9  1054.94
565.8  1083.62
565.7  1023.2
565.6  1060.369
565.5  1080.628
565.4  1034.44
565.3  1026.92
565.2  1043.19
565.1  1119.2
565  1078.41
564.9  1077.07
564.8  1069.4
564.7  1104.13
564.6  1110.05
564.5  1073.88
564.4  1044.81
564.3  1084.58
564.2  1106.23
564.1  1103.19
564  1095.64
563.9  1141.77
563.8  1119.854
563.7  1133.78
563.6  1090.18
563.5  1079.32
563.4  1156.76
563.3  1175.42
563.2  1133.53
563.1  1184.326
563  1158.97
562.9  1153.47
562.8  1138.61
562.7  1200.43
562.6  1186.19
562.5  1175.65
562.4  1186.05
562.3  1159.9
562.2  1163.89
562.1  1187.86
562  1223.806
561.9  1204.88
561.8  1245.94
561.7  1204.82
561.6  1230.59
561.5  1225.32
561.4  1240.823
561.3  1195.27
561.2  1193.28
561.1  1201.06
561  1233.67
560.9  1278.16
560.8  1243.21
560.7  1224.58
560.6  1259.25
560.5  1258.1
560.4  1251.75
560.3  1257.16
560.2  1276.12
560.1  1263.04
560  1225.91
559.9  1313.35
559.8  1298.99
559.7  1273.61
559.6  1276.43
559.5  1252.18
559.4  1239.76
559.3  1257.88
559.2  1292.49
559.1  1275.52
559  1240.79
558.9  1256.67
558.8  1233.06
558.7  1302.13
558.6  1295.92
558.5  1272.64
558.4  1260.13
558.3  1312.93
558.2  1330.02
558.1  1311.18
558  1296.045
557.9  1304.85
557.8  1338.74
557.7  1356.397
557.6  1329.98
557.5  1340.75
557.4  1368.55
557.3  1392.36
557.2  1339.6
557.1  1373.12
557  1373.14
556.9  1394.28
556.8  1386.03
556.7  1388.81
556.6  1389.229
556.5  1416.66
556.4  1409.58
556.3  1347.73
556.2  1378.66
556.1  1422.77
556  1397.08
555.9  1336.81
555.8  1318.63
555.7  1337.05
555.6  1350.91
555.5  1253.86
555.4  1266.82
555.3  1302.77
555.2  1288.19
555.1  1213.8
555  1268.11
554.9  1220.96
554.8  1232.12
554.7  1193.43
554.6  1197.14
554.5  1229.48
554.4  1204.6
554.3  1173.14
554.2  1208.22
554.1  1211.84
554  1183.51
553.9  1140.82
553.8  1183.32
553.7  1088.91
553.6  1111.33
553.5  1089.08
553.4  1096.21
553.3  1096.08
553.2  1087.86
553.1  1083
553  1016.24
552.9  1040.35
552.8  1077.6
552.7  1019.79
552.6  1021.69
552.5  1003.2
552.4  1031.63
552.3  1037.66
552.2  1047.16
552.1  989.117
552  985.991
551.9  964.044
551.8  1007.41
551.7  987.751
551.6  989.182
551.5  1006.5
551.4  956.728
551.3  970.541
551.2  978.544
551.1  942.18
551  997.146
550.9  986.048
550.8  967.247
550.7  909.9062
550.6  900.71
550.5  931.243
550.4  923.139
550.3  944.054
550.2  959.069
550.1  955.016
550  960.755
549.9  972.846
549.8  920.779
549.7  956.653
549.6  966.757
549.5  936.67
549.4  911.875
549.3  941.144
549.2  945.388
549.1  963.222
549  926.8
548.9  890.039
548.8  912.0784
548.7  909.07
548.6  930.703
548.5  948.468
548.4  907.65
548.3  831.173
548.2  871.138
548.1  857.458
548  842.4235
547.9  860.96
547.8  870.3375
547.7  854.548
547.6  851.333
547.5  863.304
547.4  831.767
547.3  820.288
547.2  847.2082
547.1  848.93
547  819.728
546.9  835.977
546.8  860.311
546.7  793.873
546.6  801.191
546.5  777.037
546.4  732.68
546.3  763.1716
546.2  770.484
546.1  765.927
546  771.806
545.9  776.448
545.8  773.338
545.7  772.425
545.6  756.89
545.5  724.25
545.4  723.5969
545.3  706.99
545.2  689.861
545.1  670.388
545  694.876
544.9  657.074
544.8  649.2882
544.7  578.182
544.6  575.1184
544.5  605.779
544.4  588.238
544.3  536.184
544.2  553.502
544.1  559.265
544  523.756
543.9  523.645
543.8  520.528
543.7  494.477
543.6  515.377
543.5  509.571
543.4  500.151
543.3  467.535
543.2  477.932
543.1  445.41
543  451.54
542.9  484.178
542.8  459.047
542.7  458.614
542.6  464.343
542.5  463.01
542.4  444.571
542.3  433.388
542.2  417.565
542.1  417.492
542  428.421
541.9  438.897
541.8  440.957
541.7  423.198
541.6  408.104
541.5  393.241
541.4  396.383
541.3  398.962
541.2  398.5736
541.1  409.842
541  431.795
540.9  415.792
540.8  428.251
540.7  452.388
540.6  405.127
540.5  455.569
540.4  438.195
540.3  432.288
540.2  427.396
540.1  422.821
540  438.4517
539.9  420.093
539.8  417.348
539.7  406.287
539.6  424.601
539.5  413.959
539.4  391.982
539.3  411.365
539.2  425.8145
539.1  427.291
539  417.706
538.9  419.2022
538.8  413.1
538.7  429.24
538.6  465.531
538.5  442.139
538.4  442.527
538.3  428.011
538.2  396.614
538.1  438.602
538  457.333
537.9  460.461
537.8  428.846
537.7  468.083
537.6  455.743
537.5  449.771
537.4  462.581
537.3  461.985
537.2  474.247
537.1  472.4353
537  469.63
536.9  496.715
536.8  523.809
536.7  557.042
536.6  581.698
536.5  618.753
536.4  617.175
536.3  704.443
536.2  731.906
536.1  855.1151
536  969.446
535.9  1133.89
535.8  1332.57
535.7  1623.37
535.6  1971.89
535.5  2425.32
535.4  3022.82
535.3  3689.64
535.2  4645.71
535.1  5505
535  6555.266
534.9  7842.32
534.8  8928.92
534.7  10105.229
534.6  11035.55
534.5  11695.579
534.4  12173.969
534.3  12324.577
534.2  12017.274
534.1  11418.163
534  10417.279
533.9  9358.72
533.8  8240.1
533.7  6999.61
533.6  5682.3
533.5  4556.471
533.4  3574.22
533.3  2879.56
533.2  2336.94
533.1  1833.93
533  1497.19
532.9  1209.889
532.8  1032.33
532.7  923.387
532.6  830.872
532.5  780.799
532.4  731.9161
532.3  696.433
532.2  652.321
532.1  587.917
532  582.284
531.9  573.216
531.8  552.876
531.7  533.807
531.6  502.3397
531.5  504.969
531.4  483.606
531.3  489.648
531.2  496.147
531.1  456.854
531  449.925
530.9  442.627
530.8  419.1181
530.7  418.165
530.6  431.318
530.5  404.266
530.4  392.245
530.3  455.369
530.2  440.5884
530.1  403.68
530  420.385
529.9  403.608
529.8  427.603
529.7  431.8254
529.6  425.858
529.5  412.022
529.4  386.118
529.3  393.54
529.2  377.769
529.1  394.151
529  401.159
528.9  376.159
528.8  383.665
528.7  396.696
528.6  372.431
528.5  374.212
528.4  387.722
528.3  380.057
528.2  377.212
528.1  400.4524
528  408.544
527.9  391.883
527.8  375.263
527.7  380.677
527.6  380.848
527.5  388.353
527.4  391.216
527.3  342.7196
527.2  386.8094
527.1  378.493
527  365.277
526.9  395.905
526.8  391.3093
526.7  392.485
526.6  367.9963
526.5  373.2031
526.4  377.897
526.3  364.754
526.2  367.119
526.1  379.573
526  366.155
525.9  373.594
525.8  385.702
525.7  412.78
525.6  404.335
525.5  366.723
525.4  379.655
525.3  396.221
525.2  373.595
525.1  375.227
525  392.564
524.9  380.659
524.8  369.147
524.7  359.247
524.6  377.12
524.5  391.42
524.4  353.548
524.3  387.009
524.2  385.735
524.1  407.508
524  368.1044
523.9  383.547
523.8  365.244
523.7  386.13
523.6  362.232
523.5  366.091
523.4  355.214
523.3  380.633
523.2  396.633
523.1  375.186
523  353.669
522.9  359.354
522.8  375.384
522.7  362.795
522.6  350.28
522.5  390.755
522.4  389.981
522.3  365.455
522.2  361.065
522.1  357.288
522  356.668
521.9  381.298
521.8  381.387
521.7  367.32
521.6  350.143
521.5  353.741
521.4  367.697
521.3  371.735
521.2  385.79
521.1  369.944
521  382.413