File: SiO 17.xy
# Created by:        SpecsLab Prodigy, Version 4.50.2-r79252
#
# XY-Serializer Export Settings:
#   Comment Prefix:           #
#   Output meta data:         yes
#   Energy Axis:              Binding Energy
#   Count Rate:               Counts per Second
#   Separate Scan Data:       no
#   Separate Channel Data:    no
#   External Channel Data:    yes
#   Transmission Function:    no
#   ErrorBar:                 no
#   Operation Results:        yes
#   Time Zone Format:         UTC
#
# Group:             Spectrum Group 35
#
# Region:            O1s
# Acquisition Date:  10/25/19 18:48:29 UTC
# Analysis Method:   XPS
# Analyzer:          Phoibos
# Analyzer Lens:     MediumArea:1.5kV
# Analyzer Slit:     5:7x20\B:open
# Scan Mode:         FixedAnalyzerTransmission
# Curves/Scan:       1
# Values/Curve:      491
# Dwell Time:        0.1
# Excitation Energy: 1486.71
# Binding Energy:    570
# Pass Energy:       10
# Bias Voltage:      90
# Detector Voltage:  1900
# Eff. Workfunction: 4.395
# Source:            Focus
# Comment:
#
# Cycle: 0
# Number of Scans: 12
#
# Cycle: 0, Curve: 0
# Acquisition Date: 10/25/19 18:48:29 UTC
#
# ColumnLabels: energy counts/s
#
570  1463.34
569.9  1409.98
569.8  1402.96
569.7  1441.11
569.6  1482.11
569.5  1457.22
569.4  1470.61
569.3  1420.87
569.2  1439.14
569.1  1441.13
569  1405.76
568.9  1396.47
568.8  1436.41
568.7  1394.23
568.6  1392.32
568.5  1330.35
568.4  1417.696
568.3  1395.32
568.2  1408.72
568.1  1428.87
568  1445.92
567.9  1420.747
567.8  1414.118
567.7  1354.11
567.6  1360.42
567.5  1415.06
567.4  1482.6
567.3  1428.67
567.2  1412.07
567.1  1438.83
567  1477.43
566.9  1464.35
566.8  1455.78
566.7  1441.78
566.6  1476.73
566.5  1491.01
566.4  1454.8
566.3  1493.79
566.2  1484.45
566.1  1557.19
566  1527.31
565.9  1563.98
565.8  1494.03
565.7  1461.2
565.6  1509.33
565.5  1474.39
565.4  1512.78
565.3  1492.69
565.2  1594.96
565.1  1567.24
565  1581.62
564.9  1590.88
564.8  1589.77
564.7  1541.68
564.6  1549.28
564.5  1533.37
564.4  1542.31
564.3  1531.36
564.2  1591.73
564.1  1598.03
564  1592.06
563.9  1592.61
563.8  1591.78
563.7  1625.83
563.6  1592.22
563.5  1661.06
563.4  1603.3
563.3  1662
563.2  1676.12
563.1  1724.38
563  1676.85
562.9  1670.04
562.8  1701.56
562.7  1664.2
562.6  1644.21
562.5  1724.37
562.4  1718.12
562.3  1705.83
562.2  1700.44
562.1  1760.39
562  1708.66
561.9  1753.92
561.8  1767.33
561.7  1772.96
561.6  1740.6
561.5  1812.23
561.4  1763.41
561.3  1751.17
561.2  1787.16
561.1  1769.67
561  1768.903
560.9  1807.62
560.8  1807.04
560.7  1809.48
560.6  1802.64
560.5  1812.75
560.4  1890.593
560.3  1810.71
560.2  1760.043
560.1  1824.58
560  1798.49
559.9  1863.865
559.8  1850.316
559.7  1897.26
559.6  1878.69
559.5  1813.48
559.4  1854.93
559.3  1761.16
559.2  1835
559.1  1840.62
559  1826.65
558.9  1848.55
558.8  1816.31
558.7  1801.866
558.6  1798.52
558.5  1806.2
558.4  1845.86
558.3  1830.998
558.2  1875.91
558.1  1853.94
558  1896.27
557.9  1915.975
557.8  1922.46
557.7  1898.65
557.6  1865.75
557.5  1913.74
557.4  1935.11
557.3  1943.6
557.2  1947.815
557.1  1909.74
557  1979.78
556.9  1980.17
556.8  1961.19
556.7  2007.11
556.6  1961.06
556.5  2109.7
556.4  2045.7
556.3  2010.7
556.2  1999.68
556.1  2028.1
556  1995.42
555.9  1933.62
555.8  1954.29
555.7  1941.31
555.6  1908.84
555.5  1901.48
555.4  1884.35
555.3  1823.88
555.2  1834.87
555.1  1876.48
555  1778.41
554.9  1776.17
554.8  1809.65
554.7  1729.91
554.6  1809.89
554.5  1744.259
554.4  1707.23
554.3  1733.89
554.2  1756.63
554.1  1767.16
554  1737.68
553.9  1732.98
553.8  1681.25
553.7  1628.67
553.6  1639.18
553.5  1595.776
553.4  1645.59
553.3  1594.54
553.2  1587.3
553.1  1583.55
553  1581.92
552.9  1564.85
552.8  1528.45
552.7  1547.86
552.6  1546.71
552.5  1454.73
552.4  1515.51
552.3  1526.984
552.2  1509.067
552.1  1464.75
552  1460.7
551.9  1400.54
551.8  1421.02
551.7  1390.62
551.6  1453.59
551.5  1478.02
551.4  1391.25
551.3  1401.62
551.2  1434.73
551.1  1426.65
551  1456.58
550.9  1424.3
550.8  1427.91
550.7  1421.07
550.6  1426.03
550.5  1388.77
550.4  1423.36
550.3  1392.098
550.2  1342.911
550.1  1380.71
550  1360.14
549.9  1339.85
549.8  1375.69
549.7  1346.83
549.6  1328.42
549.5  1301.93
549.4  1347.74
549.3  1359.22
549.2  1369.75
549.1  1331.52
549  1379.26
548.9  1368.07
548.8  1336.831
548.7  1344.75
548.6  1317.97
548.5  1316.239
548.4  1260.2
548.3  1273.89
548.2  1265.223
548.1  1272.47
548  1277.65
547.9  1297.188
547.8  1233.48
547.7  1261.4
547.6  1259.17
547.5  1251.54
547.4  1191.79
547.3  1171.53
547.2  1250.11
547.1  1223.44
547  1232.54
546.9  1232.8
546.8  1169.56
546.7  1183.61
546.6  1248.412
546.5  1193.57
546.4  1131.038
546.3  1170.13
546.2  1157.4
546.1  1151.85
546  1122.89
545.9  1137.563
545.8  1143.37
545.7  1093.8
545.6  1076.97
545.5  1145.08
545.4  1094.94
545.3  1067.65
545.2  1063.53
545.1  1006.39
545  1021.2
544.9  1014.15
544.8  992.589
544.7  966.245
544.6  994.973
544.5  969.278
544.4  930.573
544.3  909.726
544.2  890.578
544.1  828.124
544  864.5165
543.9  819.4707
543.8  819.476
543.7  774.793
543.6  786.89
543.5  771.586
543.4  750.2706
543.3  749.566
543.2  739.469
543.1  752.006
543  743.457
542.9  725.549
542.8  708.529
542.7  749.521
542.6  672.158
542.5  681.039
542.4  687.344
542.3  706.296
542.2  695.414
542.1  665.47
542  685.994
541.9  672.426
541.8  718.617
541.7  706.801
541.6  688.366
541.5  675.239
541.4  666.413
541.3  687.155
541.2  665.685
541.1  721.4223
541  704.887
540.9  703.645
540.8  663.712
540.7  688.086
540.6  696.832
540.5  648.928
540.4  675.117
540.3  708.9025
540.2  714.209
540.1  709.251
540  652.644
539.9  662.909
539.8  666.744
539.7  717.179
539.6  683.047
539.5  647.898
539.4  671.249
539.3  696.153
539.2  672.969
539.1  668.611
539  704.676
538.9  718.09
538.8  657.965
538.7  656.43
538.6  674.205
538.5  709.117
538.4  657.372
538.3  675.536
538.2  668.477
538.1  659.106
538  654.41
537.9  689.8716
537.8  673.043
537.7  707.408
537.6  699.036
537.5  713.865
537.4  716.1418
537.3  746.78
537.2  794.292
537.1  798.341
537  772.9614
536.9  796.233
536.8  794.687
536.7  798.233
536.6  851.402
536.5  859.737
536.4  904.262
536.3  965.636
536.2  1068.17
536.1  1171.85
536  1267.457
535.9  1506.58
535.8  1701.22
535.7  1981.26
535.6  2382.69
535.5  2869.17
535.4  3494.17
535.3  4448.22
535.2  5492.47
535.1  6627.53
535  8030.66
534.9  9571.46
534.8  11241.741
534.7  12881.526
534.6  14590.912
534.5  16148.958
534.4  17126.081
534.3  17843.836
534.2  17880.266
534.1  17344.868
534  16648.317
533.9  15302.158
533.8  13831.99
533.7  11879.718
533.6  9988.53
533.5  8413.11
533.4  6769.32
533.3  5337.85
533.2  4324.77
533.1  3419.38
533  2700.17
532.9  2329.11
532.8  1985.79
532.7  1673.99
532.6  1473.77
532.5  1338.64
532.4  1229.48
532.3  1142.89
532.2  1043.71
532.1  945.748
532  909.285
531.9  965.314
531.8  917.858
531.7  874.307
531.6  845.856
531.5  771.1858
531.4  736.4912
531.3  721.666
531.2  753.666
531.1  736.403
531  730.4485
530.9  747.133
530.8  737.56
530.7  657.765
530.6  710.523
530.5  717.899
530.4  683.327
530.3  689.542
530.2  725.646
530.1  668.22
530  672.578
529.9  685.41
529.8  675.789
529.7  684.711
529.6  637.815
529.5  636.766
529.4  610.314
529.3  611.405
529.2  626.987
529.1  641.642
529  700.335
528.9  632.819
528.8  611.6176
528.7  662.684
528.6  629.832
528.5  629.624
528.4  610.633
528.3  639.868
528.2  590.355
528.1  631.049
528  612.088
527.9  605.17
527.8  617.185
527.7  599.843
527.6  596.913
527.5  627.478
527.4  615.663
527.3  631.2173
527.2  609.065
527.1  630.851
527  594.9221
526.9  584.0997
526.8  596.964
526.7  604.4186
526.6  581.226
526.5  607.875
526.4  599.339
526.3  604.509
526.2  632.127
526.1  578.786
526  578.167
525.9  635.553
525.8  639.624
525.7  594.689
525.6  597.8122
525.5  603.034
525.4  625.16
525.3  651.675
525.2  603.513
525.1  590.897
525  594.577
524.9  603.454
524.8  613.027
524.7  601.258
524.6  609.202
524.5  587.389
524.4  623.052
524.3  611.968
524.2  600.971
524.1  621.609
524  614.365
523.9  601.6182
523.8  607.002
523.7  664.989
523.6  605.254
523.5  563.096
523.4  576.502
523.3  579.194
523.2  597.045
523.1  617.458
523  613.661
522.9  575.97
522.8  578.396
522.7  584.22
522.6  648.895
522.5  610.503
522.4  609.812
522.3  598.299
522.2  591.498
522.1  600.865
522  620.768
521.9  606.902
521.8  623.291
521.7  615.667
521.6  559.302
521.5  595.905
521.4  611.975
521.3  624.156
521.2  580.561
521.1  652.4924
521  620.09