File: SiO 11.xy
# Created by:        SpecsLab Prodigy, Version 4.50.2-r79252
#
# XY-Serializer Export Settings:
#   Comment Prefix:           #
#   Output meta data:         yes
#   Energy Axis:              Binding Energy
#   Count Rate:               Counts per Second
#   Separate Scan Data:       no
#   Separate Channel Data:    no
#   External Channel Data:    yes
#   Transmission Function:    no
#   ErrorBar:                 no
#   Operation Results:        yes
#   Time Zone Format:         UTC
#
# Group:             Spectrum Group 15
#
# Region:            O1s
# Acquisition Date:  10/25/19 17:57:46 UTC
# Analysis Method:   XPS
# Analyzer:          Phoibos
# Analyzer Lens:     MediumArea:1.5kV
# Analyzer Slit:     5:7x20\B:open
# Scan Mode:         FixedAnalyzerTransmission
# Curves/Scan:       1
# Values/Curve:      491
# Dwell Time:        0.1
# Excitation Energy: 1486.71
# Binding Energy:    570
# Pass Energy:       10
# Bias Voltage:      90
# Detector Voltage:  1900
# Eff. Workfunction: 4.395
# Source:            Focus
# Comment:
#
# Cycle: 0
# Number of Scans: 12
#
# Cycle: 0, Curve: 0
# Acquisition Date: 10/25/19 17:57:46 UTC
#
# ColumnLabels: energy counts/s
#
570  1924.79
569.9  1935.87
569.8  1954.41
569.7  1964.09
569.6  1931.1
569.5  1871.01
569.4  1903.23
569.3  1943.28
569.2  1871.69
569.1  1918.46
569  1880.31
568.9  1933.334
568.8  1916.66
568.7  1859.73
568.6  1861.83
568.5  1899.45
568.4  1862.53
568.3  1891.79
568.2  1765.09
568.1  1879.38
568  1911.98
567.9  1898.41
567.8  1900.5
567.7  1916.52
567.6  1829.77
567.5  1826.06
567.4  1898.391
567.3  1887.97
567.2  1918.86
567.1  1899.327
567  1894.39
566.9  1908.28
566.8  1906.83
566.7  1966.53
566.6  1929.77
566.5  1860.06
566.4  1853.73
566.3  1948.4
566.2  1925.45
566.1  1956.46
566  2026.76
565.9  1977.89
565.8  2013.27
565.7  1978.05
565.6  2043.27
565.5  2039.55
565.4  2056.56
565.3  2148.635
565.2  1996.24
565.1  2061.01
565  2067.52
564.9  1998.13
564.8  2048.32
564.7  2091.39
564.6  2021.58
564.5  2132.592
564.4  2044.11
564.3  2025.92
564.2  2094.76
564.1  2114.1
564  2159.73
563.9  2133.55
563.8  2098.74
563.7  2198.39
563.6  2132.08
563.5  2195.3
563.4  2171.57
563.3  2286.18
563.2  2171.33
563.1  2183.52
563  2219.69
562.9  2180.01
562.8  2193.976
562.7  2155.45
562.6  2220.64
562.5  2282.77
562.4  2193.68
562.3  2294.59
562.2  2284.02
562.1  2321.61
562  2316.47
561.9  2285.52
561.8  2256.04
561.7  2221.7
561.6  2267.79
561.5  2346.24
561.4  2332.09
561.3  2353.79
561.2  2354.74
561.1  2284.052
561  2347.72
560.9  2319.61
560.8  2413.9
560.7  2329.59
560.6  2370.31
560.5  2332.75
560.4  2370.19
560.3  2430.22
560.2  2393.17
560.1  2391.72
560  2397.78
559.9  2383.91
559.8  2390.54
559.7  2437.554
559.6  2406.87
559.5  2419.76
559.4  2303.27
559.3  2363.78
559.2  2357.13
559.1  2364.28
559  2437.07
558.9  2447.48
558.8  2393.85
558.7  2398.79
558.6  2466.868
558.5  2460.78
558.4  2410.76
558.3  2423.83
558.2  2493.08
558.1  2484.57
558  2488.6
557.9  2510.96
557.8  2386.96
557.7  2481.44
557.6  2562.5
557.5  2560.94
557.4  2555.3
557.3  2483.13
557.2  2579.09
557.1  2582.482
557  2614.889
556.9  2626.98
556.8  2679.56
556.7  2632.314
556.6  2678.52
556.5  2719.8
556.4  2657.65
556.3  2614.63
556.2  2604.52
556.1  2621.91
556  2535.07
555.9  2562.59
555.8  2569.03
555.7  2511.94
555.6  2514.78
555.5  2485.23
555.4  2450.17
555.3  2396.04
555.2  2358.41
555.1  2378.65
555  2390.15
554.9  2286.02
554.8  2282.08
554.7  2315.44
554.6  2264.98
554.5  2274.614
554.4  2257.44
554.3  2273.93
554.2  2256.03
554.1  2255.56
554  2175.7
553.9  2193.74
553.8  2188.536
553.7  2186.19
553.6  2208.11
553.5  2105.23
553.4  2143.38
553.3  2129.94
553.2  2108.35
553.1  2042.86
553  2028.8
552.9  2067.68
552.8  2008.06
552.7  1966.92
552.6  1932.45
552.5  2003.4
552.4  1950.61
552.3  1920.87
552.2  1955.333
552.1  1913.32
552  1876.31
551.9  1887.47
551.8  1921.48
551.7  1894.73
551.6  1874.48
551.5  1924.04
551.4  1880.96
551.3  1906.78
551.2  1838.34
551.1  1857.22
551  1847.54
550.9  1877.47
550.8  1858.05
550.7  1801.14
550.6  1789.24
550.5  1836.72
550.4  1823.48
550.3  1848.54
550.2  1874.171
550.1  1889.38
550  1877.26
549.9  1827.97
549.8  1842.69
549.7  1811.55
549.6  1834.21
549.5  1763.42
549.4  1786.38
549.3  1837.6
549.2  1821.78
549.1  1764.95
549  1740.33
548.9  1790.57
548.8  1823.499
548.7  1741.93
548.6  1780.74
548.5  1726.41
548.4  1660.135
548.3  1709.98
548.2  1686.86
548.1  1717.05
548  1668.18
547.9  1683.79
547.8  1677.06
547.7  1656.45
547.6  1618.7
547.5  1612.63
547.4  1585.87
547.3  1629.22
547.2  1610.72
547.1  1577.45
547  1630.52
546.9  1613.8
546.8  1535.951
546.7  1556.71
546.6  1599.45
546.5  1564.98
546.4  1586.01
546.3  1550.464
546.2  1538.84
546.1  1532.83
546  1541.92
545.9  1515.8
545.8  1492.02
545.7  1467
545.6  1459.67
545.5  1426.04
545.4  1490.71
545.3  1435.61
545.2  1386.15
545.1  1330.51
545  1307.91
544.9  1282.05
544.8  1254.719
544.7  1282.48
544.6  1251.67
544.5  1257.01
544.4  1226.93
544.3  1231.98
544.2  1136.58
544.1  1146.74
544  1081.55
543.9  1058.33
543.8  1086.63
543.7  1035.47
543.6  1040.33
543.5  1012.57
543.4  966.684
543.3  986.853
543.2  999.869
543.1  928.71
543  920.188
542.9  959.059
542.8  972.136
542.7  955.328
542.6  989.545
542.5  963.358
542.4  921.699
542.3  921.317
542.2  981.962
542.1  949.526
542  904.6162
541.9  877.271
541.8  898.961
541.7  936.3739
541.6  947.045
541.5  949.056
541.4  947.392
541.3  902.715
541.2  913.494
541.1  937.8408
541  930.057
540.9  908.285
540.8  930.969
540.7  894.976
540.6  902.614
540.5  917.621
540.4  909.011
540.3  919.253
540.2  916.456
540.1  939.1232
540  919.842
539.9  924.041
539.8  934.701
539.7  900.802
539.6  890.6055
539.5  923.503
539.4  936.145
539.3  934.093
539.2  907.031
539.1  903.137
539  905.886
538.9  896.618
538.8  894.0906
538.7  878.082
538.6  864.764
538.5  925.0316
538.4  964.642
538.3  971.493
538.2  971.964
538.1  936.15
538  957.113
537.9  961.363
537.8  957.826
537.7  956.147
537.6  968.875
537.5  955.916
537.4  997.418
537.3  1014.95
537.2  985.9854
537.1  1039.48
537  1088.79
536.9  1056.77
536.8  1101.9
536.7  1121.84
536.6  1193.87
536.5  1266.65
536.4  1351.84
536.3  1476.19
536.2  1635.29
536.1  1833.89
536  2094.447
535.9  2348.33
535.8  2717.13
535.7  3140.19
535.6  3888.76
535.5  4696.53
535.4  5548.44
535.3  6666.76
535.2  8193.3
535.1  9786.65
535  11437.187
534.9  13363.559
534.8  15382.149
534.7  17295.731
534.6  19297.751
534.5  20941.473
534.4  21829.347
534.3  22811.166
534.2  22691.94
534.1  22078.328
534  20678.951
533.9  19183.758
533.8  17372.652
533.7  14951.817
533.6  12668.519
533.5  10578.635
533.4  8577.11
533.3  6827.53
533.2  5469.29
533.1  4411.82
533  3625.757
532.9  2995.62
532.8  2518.48
532.7  2156.83
532.6  1874.02
532.5  1803.47
532.4  1624.47
532.3  1495.19
532.2  1328.79
532.1  1284.86
532  1229.97
531.9  1234.39
531.8  1137.46
531.7  1095.52
531.6  1049.59
531.5  1041.15
531.4  1036.08
531.3  1021.01
531.2  1002.8
531.1  1013.55
531  912.92
530.9  914.247
530.8  949.439
530.7  921.8
530.6  910.648
530.5  925.697
530.4  927.1
530.3  920.004
530.2  867.011
530.1  864.92
530  877.7286
529.9  877.713
529.8  909.8335
529.7  844.458
529.6  875.101
529.5  868.389
529.4  867.04
529.3  853.908
529.2  869.092
529.1  860.919
529  820.347
528.9  861.721
528.8  882.408
528.7  870.668
528.6  866.324
528.5  887.262
528.4  866.115
528.3  829.526
528.2  805.325
528.1  824.85
528  806.237
527.9  790.611
527.8  811.916
527.7  853.027
527.6  870.471
527.5  866.889
527.4  835.887
527.3  820.03
527.2  809.93
527.1  812.663
527  805.4581
526.9  812.403
526.8  806.0613
526.7  818.943
526.6  831.806
526.5  839.1765
526.4  854.763
526.3  839.9
526.2  838.474
526.1  821.675
526  807.632
525.9  837.017
525.8  813.537
525.7  775.79
525.6  789.286
525.5  815.711
525.4  824.542
525.3  831.825
525.2  817.365
525.1  819.8135
525  828.267
524.9  820.491
524.8  799.996
524.7  808.981
524.6  815.684
524.5  802.797
524.4  797.433
524.3  803.177
524.2  808.728
524.1  808.729
524  811.524
523.9  817.319
523.8  820.804
523.7  874.95
523.6  835.517
523.5  842.424
523.4  846.253
523.3  793.315
523.2  779.233
523.1  829.126
523  806.258
522.9  805.52
522.8  834.279
522.7  799.467
522.6  820.809
522.5  802.192
522.4  797.49
522.3  830.62
522.2  814.957
522.1  848.443
522  829.525
521.9  806.076
521.8  785.938
521.7  789.726
521.6  789.05
521.5  810.213
521.4  822.054
521.3  806.353
521.2  848.085
521.1  826.691
521  827.509