File: SiO 1.xy
# Created by:        SpecsLab Prodigy, Version 4.50.2-r79252
#
# XY-Serializer Export Settings:
#   Comment Prefix:           #
#   Output meta data:         yes
#   Energy Axis:              Binding Energy
#   Count Rate:               Counts per Second
#   Separate Scan Data:       no
#   Separate Channel Data:    no
#   External Channel Data:    yes
#   Transmission Function:    no
#   ErrorBar:                 no
#   Operation Results:        yes
#   Time Zone Format:         UTC
#
# Group:             Spectrum Group 0
#
# Region:            Survey
# Acquisition Date:  10/25/19 16:37:31 UTC
# Analysis Method:   XPS
# Analyzer:          Phoibos
# Analyzer Lens:     MediumArea:1.5kV
# Analyzer Slit:     5:7x20\B:open
# Scan Mode:         FixedAnalyzerTransmission
# Curves/Scan:       1
# Values/Curve:      1201
# Dwell Time:        0.1
# Excitation Energy: 1486.71
# Binding Energy:    1200
# Pass Energy:       50
# Bias Voltage:      90
# Detector Voltage:  1900
# Eff. Workfunction: 4.395
# Source:            Focus
# Comment:
#
# Cycle: 0
# Number of Scans: 1
#
# Cycle: 0, Curve: 0
# Acquisition Date: 10/25/19 16:37:31 UTC
#
# ColumnLabels: energy counts/s
#
1200  18360.107
1199  18007.698
1198  18450.273
1197  17712.927
1196  17803.221
1195  19253.325
1194  19434.538
1193  18408.436
1192  18634.657
1191  18503.093
1190  18496.682
1189  19114.673
1188  18227.192
1187  18031.441
1186  17849.618
1185  18716.738
1184  19877.794
1183  18987.082
1182  18737.062
1181  18970.944
1180  18927.509
1179  18860.596
1178  19048.677
1177  18638.167
1176  18455.375
1175  18256.031
1174  18695.704
1173  18717.267
1172  18174.82
1171  18505.89
1170  18705.269
1169  18180.76
1168  18907.59
1167  18566.723
1166  19836.713
1165  19198.063
1164  19210.375
1163  18506.14
1162  19155.851
1161  18921.49
1160  18650.022
1159  18923.022
1158  19265.438
1157  19449.103
1156  19176.618
1155  19794.157
1154  18729.288
1153  19348.141
1152  19019.693
1151  19713.832
1150  19027.902
1149  19503.936
1148  19171.004
1147  19591.931
1146  19026.149
1145  18297.569
1144  18434.513
1143  19577.434
1142  19654.693
1141  19063.389
1140  18801.509
1139  19027.486
1138  19060.925
1137  19054.116
1136  18633.449
1135  18848.676
1134  19115.952
1133  19208.212
1132  19518.252
1131  19391.209
1130  19394.174
1129  19388.172
1128  19445.324
1127  18991.927
1126  19656.543
1125  19226.371
1124  19372.948
1123  19690.601
1122  19918.258
1121  20388.807
1120  19672.229
1119  18829.015
1118  20027.329
1117  20216.498
1116  19599.766
1115  19747.197
1114  19734.061
1113  19922.533
1112  19745.122
1111  20090.338
1110  20812.509
1109  19976.181
1108  19275.16
1107  19607.022
1106  19781.069
1105  20374.267
1104  19127.611
1103  20296.943
1102  20680.738
1101  20490.85
1100  20248.7
1099  21190.993
1098  20277.025
1097  19656.03
1096  20344.133
1095  20018.662
1094  20400.914
1093  19964.584
1092  20222.501
1091  20152.158
1090  20542.622
1089  20647.831
1088  20466.076
1087  20501.068
1086  21925.031
1085  20780.166
1084  20846.199
1083  20771.559
1082  20806.525
1081  20545.121
1080  21089.047
1079  21539.075
1078  21374.078
1077  21673.712
1076  20982.296
1075  20882.062
1074  21306.578
1073  22082.445
1072  21824.792
1071  22059.956
1070  21320.962
1069  21788.043
1068  21653.592
1067  21789.756
1066  21671.914
1065  21997.001
1064  22149.205
1063  21701.264
1062  22032.909
1061  22196.981
1060  22430.163
1059  22861.444
1058  22664.508
1057  22173.241
1056  22192.571
1055  22708.688
1054  22802.506
1053  23245.346
1052  22686.501
1051  23601.597
1050  23519.753
1049  22833.872
1048  22991.548
1047  23055.999
1046  23111.588
1045  23111.535
1044  23628.341
1043  23834.83
1042  23306.082
1041  23413.622
1040  23383.362
1039  23322.05
1038  24520.016
1037  24550.03
1036  24431.889
1035  24291.838
1034  23516.307
1033  24041.783
1032  24570.521
1031  25348.211
1030  24886.284
1029  24966.839
1028  25657.835
1027  25908.122
1026  25344.161
1025  25374.741
1024  25577.773
1023  25408.064
1022  26296.3
1021  26930.968
1020  26639.581
1019  27312.111
1018  26889.58
1017  26267.549
1016  25737.924
1015  25360.977
1014  25321.573
1013  25349.87
1012  25615.771
1011  25260.828
1010  26206.818
1009  27276.103
1008  27021.948
1007  28969.667
1006  29845.415
1005  30166.395
1004  30414.616
1003  31590.832
1002  31451.405
1001  29671.02
1000  27144.554
999  26649.267
998  26191.608
997  25779.011
996  25917.08
995  24538.368
994  23284.623
993  23511.07
992  23821.259
991  24391.267
990  25019.907
989  24461.703
988  24304.249
987  26941.433
986  30626.678
985  34219.34
984  35710.441
983  37549.689
982  42106.714
981  44131.598
980  38480.534
979  33044.581
978  27575.094
977  25422.647
976  23579.232
975  20662.843
974  19235.294
973  18095.501
972  16809.898
971  15331.527
970  13161.155
969  12819.266
968  11753.097
967  10811.935
966  10769.442
965  11545.793
964  10946.783
963  10596.574
962  10348.44
961  10528.209
960  10819.268
959  11125.015
958  10339.865
957  10230.514
956  10281.498
955  10724.726
954  11163.305
953  12001.019
952  11563.934
951  10889.256
950  11011.147
949  10942.847
948  11294.889
947  11013.868
946  11348.273
945  10958.412
944  11314.627
943  11523.023
942  11222.274
941  11725.294
940  10887.66
939  11303.909
938  11044.178
937  11640.34
936  11093.017
935  11439.826
934  11140.87
933  11310.689
932  11407.453
931  11440.172
930  11345.263
929  11584.209
928  11324.858
927  11512.716
926  11769.425
925  11727.445
924  11548.249
923  11582.033
922  11303.838
921  11688.456
920  11532.319
919  11540.513
918  11457.445
917  11494.329
916  11272.06
915  11116.715
914  12172.524
913  11503.839
912  11510.395
911  11446.839
910  11621.827
909  11827.699
908  11577.483
907  11824.88
906  11675.395
905  12271.448
904  12080.474
903  11629.244
902  11425.972
901  11856.42
900  12127.234
899  11630.417
898  11441.31
897  11569.493
896  12283.309
895  12186.38
894  12484.108
893  12230.491
892  12036.267
891  12449.528
890  12422.083
889  13033.598
888  12827.215
887  12589.273
886  12420.087
885  12786.958
884  12690.782
883  12439.101
882  12031.065
881  12167.133
880  12719.116
879  11777.95
878  12360.97
877  12434.564
876  12669.437
875  13669.177
874  12600.689
873  12899.143
872  13514.673
871  12368.628
870  12225.653
869  12883.334
868  12996.743
867  12719.764
866  13107.168
865  13035.657
864  13403.549
863  13378.492
862  13191.04
861  13242.366
860  13277.183
859  13601.919
858  13281.661
857  12458.043
856  12905.901
855  13519.031
854  13022.305
853  12441.774
852  13095.676
851  13928.544
850  13401.766
849  13130.334
848  13484.145
847  14085.148
846  13864.218
845  13651.124
844  14132.413
843  14276.621
842  13736.281
841  14139.177
840  14085.971
839  14654.096
838  13862.983
837  13855.433
836  13656.412
835  13770.807
834  13844.426
833  13239.522
832  13532.714
831  13531.793
830  14145.639
829  13673.526
828  13700.567
827  13885.831
826  14457.344
825  14498.722
824  14849.303
823  14021.979
822  14714.045
821  14728.434
820  13846.843
819  14059.931
818  14309.219
817  14321.831
816  14662.315
815  14307.956
814  14379.001
813  14670.471
812  14580.515
811  14866.804
810  14916.176
809  14955.959
808  15117
807  15002.351
806  14579.203
805  15057.344
804  15127.244
803  14418.08
802  15027.329
801  15303.957
800  14972.411
799  14576.911
798  15050.405
797  15165.809
796  15008.479
795  14851.596
794  14965.169
793  15402.336
792  15105.43
791  15603.027
790  15120.767
789  15050.655
788  15523.014
787  15453.361
786  15517.773
785  15514.828
784  15976.874
783  15245.464
782  15986.493
781  15164.462
780  15754.077
779  15715.703
778  15563.494
777  15768.672
776  15675.689
775  16115.765
774  16492.319
773  16296.518
772  15726.578
771  16161.461
770  16515.437
769  16361.443
768  16161.891
767  15663.363
766  16330.432
765  16508.428
764  16446.908
763  16701.998
762  16906.401
761  16669.604
760  16299.643
759  17233.519
758  16848.395
757  16857.122
756  16536.248
755  16500.752
754  16803.257
753  17103.773
752  16736.216
751  16606.761
750  16548.454
749  16929.613
748  16963.208
747  17104.176
746  17260.12
745  17497.351
744  17617.931
743  17021.577
742  16791.111
741  17491.796
740  17146.49
739  17138.612
738  17304.811
737  17460.192
736  17330.204
735  16751.183
734  17101.894
733  17475.851
732  18191.152
731  17182.93
730  17987.293
729  17594.933
728  17579.706
727  17637.222
726  17728.631
725  18177.348
724  18530.118
723  18212.809
722  18328.028
721  18255.412
720  18575.563
719  17725.68
718  18574.149
717  18746.741
716  18715.567
715  18664.723
714  18484.079
713  18554.859
712  18409.221
711  18926.66
710  19947.773
709  18977.459
708  18903.492
707  18498.64
706  18588.902
705  18795.932
704  18273.149
703  18928.862
702  19073.765
701  18549.742
700  19257.9
699  19447.36
698  19131.702
697  18775.066
696  19484.361
695  19754.027
694  19625.265
693  19920.157
692  19645.16
691  19740.119
690  20682.55
689  20565.274
688  20732.685
687  20431.161
686  20626.993
685  20403.106
684  20854.898
683  20278.43
682  20518.754
681  20719.208
680  19971.7
679  21012.592
678  20804.077
677  20911.775
676  21468.621
675  20922.821
674  20984.713
673  21141.554
672  21442.885
671  20824.48
670  20794.693
669  21411.373
668  21514.072
667  20792.543
666  21059.951
665  21464.407
664  21831.677
663  22290.374
662  22248.904
661  21734.535
660  22079.521
659  22620.8
658  21748.322
657  21635.663
656  22130.368
655  22426.899
654  21416.442
653  22347.019
652  22718.268
651  22283.404
650  22442.839
649  22529.99
648  22393.737
647  23099.861
646  22941.274
645  22833.607
644  23166.081
643  24126.472
642  23183.495
641  23927.048
640  23857.561
639  22716.537
638  23437.111
637  24311.521
636  23635.075
635  24407.6
634  24400.552
633  24172.36
632  23470.264
631  23695.811
630  24255.849
629  24609.867
628  24220.353
627  24628.21
626  24400.226
625  24493.609
624  25035.645
623  24760.306
622  24767.453
621  25420.288
620  24972.87
619  25374.655
618  25390.375
617  25382.593
616  25322.02
615  25687.609
614  26067.544
613  25199.899
612  25818.999
611  26881.093
610  26497.698
609  26203.382
608  26298.124
607  26632.003
606  26604.957
605  25982.106
604  26249.84
603  27101.045
602  27044.443
601  26840.002
600  27252.594
599  28406.719
598  27761.563
597  27638.401
596  27848.242
595  27332.151
594  27730.919
593  28514.431
592  28590.331
591  28799.589
590  28934.603
589  28353.215
588  29522.49
587  30245.043
586  30108.457
585  29503.8
584  29694.481
583  30539.739
582  30653.51
581  30271.758
580  30135.146
579  30028.293
578  29342.548
577  29654.315
576  30140.828
575  29947.416
574  29486.941
573  29445.808
572  29573.213
571  29851.962
570  29442.989
569  28842.911
568  28776.565
567  28709.985
566  30252.253
565  31162.805
564  32870.393
563  32740.909
562  34100.913
561  36744.985
560  36583.453
559  37033.236
558  37710.111
557  38471.497
556  39359.477
555  36895.795
554  35367.341
553  32657.446
552  30337.588
551  28140.443
550  28112.605
549  26934.544
548  25724.186
547  24630.519
546  23161.773
545  20556.87
544  17160.558
543  15259.586
542  14400.156
541  13948.663
540  14077.08
539  14623.276
538  17258.222
537  21133.794
536  49908.664
535  172313.55
534  249935.22
533  111758.6
532  29387.268
531  16616.421
530  14005.41
529  13407.214
528  13004.347
527  12418.126
526  12766.606
525  12394.436
524  12612.253
523  12774.075
522  12514.287
521  12851.792
520  13137.11
519  13139.539
518  12955.853
517  12782.126
516  12422.988
515  12361.36
514  12461.416
513  12516.433
512  12585.945
511  12565.748
510  12819.807
509  12696.297
508  12718.426
507  12213.168
506  12462.123
505  13036.276
504  13252.068
503  12894.152
502  12419.334
501  12665.117
500  13323.817
499  12897.619
498  12762.786
497  13279.806
496  13262.801
495  13746.483
494  13157.957
493  12687.018
492  13241.816
491  13238.973
490  13140.154
489  13008.558
488  13764.473
487  13269.366
486  12816.792
485  13175.712
484  13234.982
483  12756.813
482  13168.443
481  13296.73
480  13157.222
479  13683.639
478  13679.36
477  13980.034
476  13421.944
475  13393.117
474  13172.263
473  12869.448
472  12996.454
471  12692.26
470  13047.284
469  12927.735
468  13505.844
467  13237.8
466  13138.368
465  12986.94
464  12599.509
463  13750.386
462  13406.138
461  13559.151
460  14294.579
459  13656.534
458  14071.202
457  13525.848
456  13843.568
455  13859.859
454  13614.131
453  13843.278
452  13793.733
451  13829.561
450  13652.09
449  13599.03
448  13440.809
447  13702.475
446  13438.465
445  13458.568
444  13794.483
443  13814.653
442  13878.192
441  14146.568
440  14241.451
439  14169.263
438  14078.984
437  13264.701
436  13914.038
435  13733.389
434  13653.938
433  13968.641
432  13505.695
431  13734.383
430  14381.09
429  14274.14
428  14024.685
427  13914.571
426  13883.022
425  14146.976
424  14660.862
423  14860.909
422  13697.164
421  13836.416
420  14642.603
419  14390.143
418  14240.397
417  14141.795
416  14774.877
415  14577
414  14568.753
413  14352.844
412  14296.016
411  14033.602
410  14340.696
409  14243.25
408  13421.825
407  13868.785
406  14366.627
405  13989.016
404  14095.084
403  14047.477
402  14225.699
401  14608.897
400  14796.482
399  14496.397
398  13920.922
397  13797.156
396  14544.538
395  14723.618
394  14265.16
393  14787.693
392  14367.119
391  14752.256
390  14510.811
389  14091.791
388  14224.209
387  14715.169
386  13689.664
385  14388.381
384  14858.496
383  14924.673
382  15272.333
381  14485.689
380  15420.029
379  15357.804
378  14913.073
377  14267.487
376  15001.394
375  14900.83
374  15062.74
373  14441.448
372  14799.742
371  14715.331
370  14045.839
369  14538.272
368  15441.171
367  14929.254
366  14598.708
365  14386.55
364  14944.844
363  15134.613
362  14547.742
361  14746.097
360  14620.264
359  14368.145
358  15043.014
357  15454.053
356  15167.388
355  14603.389
354  14503.794
353  15280.085
352  14698.812
351  14437.729
350  15050.152
349  14724.359
348  14822.031
347  14853.507
346  15115.026
345  15029.601
344  15024.99
343  15608.805
342  15734.805
341  15610.407
340  15237.318
339  14869.028
338  15050.534
337  16189.954
336  15920.691
335  15378.935
334  15073.281
333  15338.985
332  15053.347
331  15444.257
330  15588.227
329  15420.504
328  15303.471
327  15454.835
326  15382.597
325  15603.011
324  15429.468
323  15667.958
322  15968.049
321  15901.041
320  15183.856
319  15777.875
318  15427.134
317  15470.709
316  15444.14
315  15618.78
314  15637.463
313  15211.383
312  15472.984
311  15750.092
310  16316.761
309  15557.758
308  15216.518
307  14922.01
306  15783.238
305  15509.067
304  15539.242
303  15694.056
302  16107.341
301  15870.337
300  15485.007
299  15714.879
298  15162.184
297  15255.649
296  15627.879
295  15931.475
294  15805.929
293  15636.567
292  16067.513
291  16825.601
290  16373.061
289  15925.258
288  16482.631
287  21103.092
286  23709.564
285  19486.627
284  16786.575
283  15612.482
282  15901.462
281  15354.07
280  15592.501
279  15874.183
278  15635.876
277  15663.583
276  16211.616
275  15948.143
274  16119.207
273  15921.155
272  16155.759
271  16328.136
270  15849.092
269  16403.405
268  15773.757
267  15803.229
266  16012.835
265  15643.391
264  16528.344
263  16173.752
262  16310.384
261  16106.582
260  15378.504
259  15535.29
258  15727.903
257  16313.179
256  15997.336
255  16119.498
254  16166.033
253  15730.185
252  16059.119
251  15950.208
250  16378.606
249  16754.732
248  16054.644
247  16286.714
246  16544.439
245  16736.048
244  16380.365
243  16378.556
242  16478.4
241  16856.396
240  17498.659
239  16485.35
238  16535.43
237  16504.751
236  16660.677
235  16480.626
234  16238.501
233  16504.086
232  16320.538
231  16300.021
230  16330.142
229  16370.899
228  16582.068
227  16628.704
226  16554.124
225  16733.7
224  16727.031
223  16852.491
222  16479.948
221  16822.747
220  16699.831
219  16769.376
218  16400.444
217  16989.801
216  16434.298
215  16239.837
214  16541.816
213  16719.802
212  16760.487
211  16879.277
210  16189.782
209  16569.11
208  16722.541
207  17056.603
206  17645.2
205  17061.186
204  17217.769
203  16929.078
202  16690.612
201  16664.23
200  17243.457
199  16928.043
198  17081.93
197  17635.12
196  16853.439
195  16535.416
194  17340.708
193  16534.844
192  16130.638
191  17001.052
190  16963.153
189  16800.194
188  16537.811
187  17045.182
186  18089.023
185  17394.074
184  17582.026
183  17556.864
182  17703.064
181  16965.275
180  17076.417
179  17601.088
178  18159.015
177  17713.251
176  17091.688
175  17093.115
174  17458.389
173  17204.747
172  17192.521
171  16676.086
170  16797.316
169  16788.884
168  16609.055
167  15454.372
166  13746.318
165  12668.362
164  12538.209
163  12047.558
162  11980.925
161  11965.478
160  12576.317
159  14702.831
158  20414.046
157  35099.12
156  49207.159
155  39469.759
154  23851.64
153  18219.747
152  21017.056
151  22633.359
150  15196.164
149  11171.893
148  10009.273
147  10563.649
146  9408.53
145  9153.37
144  9506.34
143  8997.88
142  8837.6
141  9203.43
140  8972.09
139  8850.412
138  9163.23
137  8962.05
136  9350.48
135  8859.97
134  9368.98
133  9100.03
132  8709.594
131  8589.4
130  8816.17
129  8874.86
128  9262.47
127  9359.795
126  9117.832
125  9351.5
124  8949.09
123  8158.924
122  8042.53
121  8322.85
120  8561.3
119  8856.94
118  8587.35
117  8583.14
116  7298.33
115  5953.38
114  4224.35
113  3649.22
112  3369.91
111  2995.075
110  2908.99
109  3027.12
108  3560.87
107  6661.02
106  26949.883
105  53060.564
104  34462.34
103  9621.07
102  4627.247
101  9254.23
100  15673.543
99  7533.73
98  2007.65
97  1651.07
96  1563.38
95  1571.7
94  1551.006
93  1486.88
92  1517.03
91  1645.02
90  1584.65
89  1474.723
88  1615.65
87  1680.52
86  1628.57
85  1692.89
84  1634.41
83  1556.84
82  1775.45
81  1732.35
80  1592.92
79  1696.98
78  1442.57
77  1699.95
76  1692.93
75  1844.03
74  1611.83
73  1623.24
72  1761.77
71  1718.62
70  1983.96
69  1845.26
68  1782.92
67  1759.829
66  1849.92
65  1878.34
64  1807.56
63  1700.14
62  1636.7
61  1946.27
60  1875.06
59  1996.31
58  1936.81
57  1907.25
56  2171.37
55  2352.28
54  2128.76
53  2285.9
52  2285.79
51  2029.95
50  2437.59
49  1955.24
48  1867.08
47  1891.78
46  1860.37
45  1909.75
44  1960.53
43  2047.79
42  1921.72
41  1715.81
40  1807.01
39  1800.87
38  1529.8
37  1400.95
36  1703.9
35  1648.59
34  1766.67
33  1948.03
32  2008.56
31  2267.93
30  3259.07
29  4661.27
28  6375.6
27  7820.04
26  7750.14
25  4252.624
24  1903.47
23  866.658
22  755.343
21  661.179
20  538.625
19  404.6339
18  913.55
17  1667.67
16  2229.45
15  2107.24
14  1847.81
13  1955.33
12  1648.4
11  1578.13
10  1908.07
9  2088.429
8  1794.28
7  1173.87
6  438.748
5  346.474
4  377.745
3  297.658
2  252.773
1  77.86725
0  40.69169