File: SiO 8.xy
# Created by:        SpecsLab Prodigy, Version 4.50.2-r79252
#
# XY-Serializer Export Settings:
#   Comment Prefix:           #
#   Output meta data:         yes
#   Energy Axis:              Binding Energy
#   Count Rate:               Counts per Second
#   Separate Scan Data:       no
#   Separate Channel Data:    no
#   External Channel Data:    yes
#   Transmission Function:    no
#   ErrorBar:                 no
#   Operation Results:        yes
#   Time Zone Format:         UTC
#
# Group:             Spectrum Group 5
#
# Region:            O1s
# Acquisition Date:  10/25/19 17:37:58 UTC
# Analysis Method:   XPS
# Analyzer:          Phoibos
# Analyzer Lens:     MediumArea:1.5kV
# Analyzer Slit:     5:7x20\B:open
# Scan Mode:         FixedAnalyzerTransmission
# Curves/Scan:       1
# Values/Curve:      491
# Dwell Time:        0.1
# Excitation Energy: 1486.71
# Binding Energy:    570
# Pass Energy:       10
# Bias Voltage:      90
# Detector Voltage:  1900
# Eff. Workfunction: 4.395
# Source:            Focus
# Comment:
#
# Cycle: 0
# Number of Scans: 12
#
# Cycle: 0, Curve: 0
# Acquisition Date: 10/25/19 17:37:58 UTC
#
# ColumnLabels: energy counts/s
#
570  2193.96
569.9  2283.41
569.8  2270.79
569.7  2250.1
569.6  2227.64
569.5  2217.986
569.4  2138.37
569.3  2133.71
569.2  2239.83
569.1  2254.55
569  2145.46
568.9  2202.04
568.8  2269.42
568.7  2201.77
568.6  2221.68
568.5  2181.48
568.4  2175.67
568.3  2208.76
568.2  2162.72
568.1  2165.05
568  2149.31
567.9  2224.94
567.8  2236.233
567.7  2202.89
567.6  2219.09
567.5  2150.4
567.4  2185.44
567.3  2218.89
567.2  2194.05
567.1  2189.02
567  2224.721
566.9  2247.65
566.8  2259.45
566.7  2300.93
566.6  2293.14
566.5  2284.894
566.4  2223.665
566.3  2274.14
566.2  2303.98
566.1  2245.53
566  2304.74
565.9  2299.673
565.8  2289.63
565.7  2279.91
565.6  2303.09
565.5  2294.34
565.4  2306.42
565.3  2308.71
565.2  2388.99
565.1  2392.04
565  2351.56
564.9  2350.34
564.8  2379.87
564.7  2470.48
564.6  2428.8
564.5  2420.95
564.4  2379.462
564.3  2389.7
564.2  2458.81
564.1  2429.09
564  2437.38
563.9  2516.59
563.8  2548.32
563.7  2513.4
563.6  2530.86
563.5  2456.39
563.4  2435.61
563.3  2448.95
563.2  2554.34
563.1  2570.91
563  2486.83
562.9  2596.71
562.8  2537.67
562.7  2589.29
562.6  2605.93
562.5  2624.23
562.4  2589.48
562.3  2588.12
562.2  2628.1
562.1  2615.48
562  2633.35
561.9  2656.256
561.8  2598.76
561.7  2704.65
561.6  2671.95
561.5  2557.56
561.4  2573.11
561.3  2654.8
561.2  2718.88
561.1  2596.51
561  2657.78
560.9  2742.29
560.8  2785.54
560.7  2689.86
560.6  2595.12
560.5  2735.66
560.4  2743.75
560.3  2726.291
560.2  2792.99
560.1  2713.55
560  2759.84
559.9  2743.85
559.8  2711.9
559.7  2800.908
559.6  2787.74
559.5  2803.42
559.4  2872.39
559.3  2753.06
559.2  2762.31
559.1  2720.65
559  2850.2
558.9  2810.58
558.8  2819.81
558.7  2802.59
558.6  2786.145
558.5  2794.63
558.4  2838.97
558.3  2781.87
558.2  2802.12
558.1  2773.734
558  2862.21
557.9  2857.32
557.8  2959.142
557.7  2981.43
557.6  2866.23
557.5  2899.36
557.4  2967.41
557.3  2899.24
557.2  2903.98
557.1  2981.37
557  3039.27
556.9  3049.84
556.8  2969.66
556.7  3034.84
556.6  3056.767
556.5  2984.88
556.4  2975.43
556.3  2965.96
556.2  2965.5
556.1  3013.33
556  2932.19
555.9  2866.8
555.8  2867.8
555.7  2863.57
555.6  2865.48
555.5  2826.15
555.4  2833.77
555.3  2806.74
555.2  2760.18
555.1  2773.84
555  2725.19
554.9  2714.01
554.8  2709.91
554.7  2648.44
554.6  2793.71
554.5  2702.87
554.4  2618.64
554.3  2563.48
554.2  2594.46
554.1  2606.22
554  2564.14
553.9  2590.15
553.8  2506.07
553.7  2472.89
553.6  2472.66
553.5  2435.8
553.4  2380.23
553.3  2416.04
553.2  2366.82
553.1  2410.39
553  2353.43
552.9  2318.94
552.8  2287.303
552.7  2299.69
552.6  2253.23
552.5  2282.03
552.4  2273.85
552.3  2198.62
552.2  2205.57
552.1  2226.387
552  2253.99
551.9  2198.83
551.8  2266.77
551.7  2163.759
551.6  2205.95
551.5  2163.99
551.4  2121.28
551.3  2182.543
551.2  2165.081
551.1  2119.65
551  2161.91
550.9  2034.65
550.8  2087.44
550.7  2149.81
550.6  2097
550.5  2131.06
550.4  2161.14
550.3  2123.01
550.2  2107.79
550.1  2143.77
550  2171.69
549.9  2141.56
549.8  2103.336
549.7  2047.77
549.6  2075.28
549.5  2095.6
549.4  2105.32
549.3  2019.84
549.2  2097.98
549.1  2045.86
549  2043.23
548.9  2059.174
548.8  2000.95
548.7  2016.6
548.6  1988.98
548.5  1998.46
548.4  2025
548.3  1972.32
548.2  1983.78
548.1  1937.05
548  1930.94
547.9  1935.13
547.8  1907.21
547.7  1849.77
547.6  1887.241
547.5  1841.82
547.4  1805.24
547.3  1873.58
547.2  1862.775
547.1  1841.86
547  1795.72
546.9  1754.5
546.8  1782.61
546.7  1809.3
546.6  1802.5
546.5  1791.67
546.4  1824.31
546.3  1782.32
546.2  1777.13
546.1  1790.41
546  1831
545.9  1810.85
545.8  1779.52
545.7  1708.39
545.6  1649.19
545.5  1698.67
545.4  1649.18
545.3  1644.02
545.2  1584.99
545.1  1528.74
545  1529
544.9  1489.53
544.8  1494.34
544.7  1492.46
544.6  1395.66
544.5  1424.02
544.4  1404.93
544.3  1402.46
544.2  1360.67
544.1  1313.92
544  1231.97
543.9  1257.86
543.8  1258.47
543.7  1235.1
543.6  1197.55
543.5  1153.3
543.4  1167.061
543.3  1196.38
543.2  1109.49
543.1  1081.74
543  1122.2
542.9  1085.35
542.8  1096.03
542.7  1078.55
542.6  1084.28
542.5  1046.69
542.4  1082.35
542.3  1076.64
542.2  1088.45
542.1  1100.205
542  1070.842
541.9  1062.76
541.8  1031.03
541.7  1045.13
541.6  1070.85
541.5  1013.93
541.4  972.554
541.3  1021.56
541.2  1022.474
541.1  1070.75
541  1049.26
540.9  1074.42
540.8  1059.997
540.7  1053.15
540.6  1033.67
540.5  1041.24
540.4  1047.58
540.3  1012.77
540.2  1056.16
540.1  1038.17
540  1017.34
539.9  1000.29
539.8  1013.66
539.7  1046.49
539.6  1033.53
539.5  1058.3
539.4  1059.539
539.3  1035.45
539.2  1052.48
539.1  1079.15
539  1053.81
538.9  1035.742
538.8  1068.43
538.7  1073.28
538.6  1055.34
538.5  1099.48
538.4  1071.3
538.3  1060.81
538.2  1048.92
538.1  1076.16
538  1037.755
537.9  1081.52
537.8  1101.07
537.7  1102.96
537.6  1089.83
537.5  1131.67
537.4  1107.94
537.3  1155.486
537.2  1211.01
537.1  1208.64
537  1239.008
536.9  1245.81
536.8  1279.64
536.7  1300.79
536.6  1404.95
536.5  1515.941
536.4  1640.6
536.3  1748.299
536.2  1930.659
536.1  2201.131
536  2626.83
535.9  2985.21
535.8  3453.95
535.7  4089.83
535.6  4991.791
535.5  6055.74
535.4  7262.04
535.3  8828.76
535.2  10329.83
535.1  12441.281
535  14584.841
534.9  16725.131
534.8  19093.113
534.7  21486.134
534.6  23461.564
534.5  25154.86
534.4  25914.364
534.3  25998.589
534.2  25854.788
534.1  24732.75
534  22971.007
533.9  20918.058
533.8  18556.335
533.7  15816.577
533.6  13136.008
533.5  10797.339
533.4  8709.85
533.3  7016.48
533.2  5637.36
533.1  4464.17
533  3692.18
532.9  3146.63
532.8  2708.168
532.7  2395.89
532.6  2091.81
532.5  1952.41
532.4  1831.42
532.3  1644.31
532.2  1536.27
532.1  1526.1
532  1445.09
531.9  1376.03
531.8  1307.04
531.7  1222.041
531.6  1220.12
531.5  1252.11
531.4  1171.53
531.3  1159.97
531.2  1219.36
531.1  1118.03
531  1125.13
530.9  1123.399
530.8  1096.93
530.7  1046.94
530.6  1047.96
530.5  1041.81
530.4  1006.06
530.3  1028.87
530.2  1019.85
530.1  1036.64
530  1044.458
529.9  958.648
529.8  1016.77
529.7  1000.53
529.6  1014.6
529.5  993.828
529.4  980.383
529.3  989.808
529.2  947.31
529.1  984.283
529  961.424
528.9  954.5848
528.8  1001.05
528.7  1028.68
528.6  986.358
528.5  964.523
528.4  968.162
528.3  978.8337
528.2  958.553
528.1  950.309
528  924.6314
527.9  967.324
527.8  972.493
527.7  968.235
527.6  963.255
527.5  972.8078
527.4  946.017
527.3  916.277
527.2  925.525
527.1  898.439
527  943.853
526.9  957.519
526.8  938.27
526.7  969.507
526.6  941.6169
526.5  901.025
526.4  918.121
526.3  974.335
526.2  933.2298
526.1  930.304
526  898.48
525.9  944.583
525.8  925.171
525.7  910.526
525.6  950.47
525.5  936.4837
525.4  954.071
525.3  932.705
525.2  910.815
525.1  928.404
525  917.594
524.9  916.649
524.8  926.2308
524.7  906.066
524.6  953.177
524.5  920.509
524.4  953.495
524.3  948.737
524.2  918.2107
524.1  953.767
524  902.571
523.9  955.67
523.8  968.1109
523.7  963.042
523.6  928.548
523.5  934.638
523.4  942.7
523.3  932.119
523.2  969.507
523.1  944.527
523  888.922
522.9  940.159
522.8  924.967
522.7  897.492
522.6  908.052
522.5  914.209
522.4  929.035
522.3  967.527
522.2  949.045
522.1  909.863
522  907.775
521.9  936.475
521.8  889.311
521.7  910.077
521.6  925.14
521.5  954.663
521.4  969.102
521.3  928.684
521.2  955.9755
521.1  973.139
521  966.892