File: SiO 20.xy
# Created by:        SpecsLab Prodigy, Version 4.50.2-r79252
#
# XY-Serializer Export Settings:
#   Comment Prefix:           #
#   Output meta data:         yes
#   Energy Axis:              Binding Energy
#   Count Rate:               Counts per Second
#   Separate Scan Data:       no
#   Separate Channel Data:    no
#   External Channel Data:    yes
#   Transmission Function:    no
#   ErrorBar:                 no
#   Operation Results:        yes
#   Time Zone Format:         UTC
#
# Group:             Spectrum Group 45
#
# Region:            O1s
# Acquisition Date:  10/25/19 19:14:47 UTC
# Analysis Method:   XPS
# Analyzer:          Phoibos
# Analyzer Lens:     MediumArea:1.5kV
# Analyzer Slit:     5:7x20\B:open
# Scan Mode:         FixedAnalyzerTransmission
# Curves/Scan:       1
# Values/Curve:      491
# Dwell Time:        0.1
# Excitation Energy: 1486.71
# Binding Energy:    570
# Pass Energy:       10
# Bias Voltage:      90
# Detector Voltage:  1900
# Eff. Workfunction: 4.395
# Source:            Focus
# Comment:
#
# Cycle: 0
# Number of Scans: 12
#
# Cycle: 0, Curve: 0
# Acquisition Date: 10/25/19 19:14:47 UTC
#
# ColumnLabels: energy counts/s
#
570  1256.21
569.9  1266.56
569.8  1302.94
569.7  1244.94
569.6  1255.83
569.5  1243.65
569.4  1265.11
569.3  1200.19
569.2  1226.58
569.1  1280.49
569  1305.11
568.9  1223.55
568.8  1231.13
568.7  1246.08
568.6  1244.96
568.5  1228.84
568.4  1239.37
568.3  1209.94
568.2  1210.87
568.1  1240.56
568  1194
567.9  1201.01
567.8  1248.06
567.7  1225.701
567.6  1231.13
567.5  1248.37
567.4  1222.5
567.3  1239.46
567.2  1235.16
567.1  1225.81
567  1231.14
566.9  1187.25
566.8  1249.2
566.7  1245.56
566.6  1200.73
566.5  1265.02
566.4  1291.36
566.3  1301.54
566.2  1296.07
566.1  1292.05
566  1296.7
565.9  1272.98
565.8  1272.293
565.7  1246.04
565.6  1242.99
565.5  1303.86
565.4  1321.61
565.3  1321.71
565.2  1293.05
565.1  1320.66
565  1325.33
564.9  1341.704
564.8  1348.89
564.7  1332.43
564.6  1339.91
564.5  1396.64
564.4  1373.62
564.3  1352.99
564.2  1386.46
564.1  1317.07
564  1383.31
563.9  1334.77
563.8  1373.19
563.7  1409.04
563.6  1360.452
563.5  1326.848
563.4  1385.37
563.3  1384.46
563.2  1420.13
563.1  1433.61
563  1411.17
562.9  1451.18
562.8  1440.78
562.7  1456.18
562.6  1448.51
562.5  1474.27
562.4  1497.39
562.3  1475.22
562.2  1458.56
562.1  1501.09
562  1520.3
561.9  1483.65
561.8  1446.88
561.7  1439.78
561.6  1497.27
561.5  1539.53
561.4  1537.78
561.3  1486.14
561.2  1542.82
561.1  1562.48
561  1533.48
560.9  1533.91
560.8  1470.69
560.7  1521.41
560.6  1522.289
560.5  1565.23
560.4  1547.15
560.3  1524.25
560.2  1559.23
560.1  1543.17
560  1593.42
559.9  1555.57
559.8  1595.18
559.7  1598.587
559.6  1573.16
559.5  1567.66
559.4  1572.396
559.3  1559.48
559.2  1548.7
559.1  1545.417
559  1539.67
558.9  1564.13
558.8  1598.94
558.7  1622.81
558.6  1609.94
558.5  1580.81
558.4  1618.53
558.3  1619.52
558.2  1566.02
558.1  1626.69
558  1667.58
557.9  1664.34
557.8  1623.18
557.7  1591.41
557.6  1649.68
557.5  1722.21
557.4  1642.88
557.3  1682.76
557.2  1664.34
557.1  1674.73
557  1769.943
556.9  1697.82
556.8  1738.13
556.7  1792.36
556.6  1734.89
556.5  1681.62
556.4  1662.14
556.3  1737.38
556.2  1749.63
556.1  1767.21
556  1695.03
555.9  1672.5
555.8  1607.19
555.7  1660.18
555.6  1623.83
555.5  1577.49
555.4  1622.82
555.3  1603.99
555.2  1595.72
555.1  1569.68
555  1579.19
554.9  1555.29
554.8  1555.96
554.7  1496.12
554.6  1534.66
554.5  1565.02
554.4  1481.58
554.3  1517.48
554.2  1505.2
554.1  1425.91
554  1458.87
553.9  1505.71
553.8  1381.46
553.7  1402.5
553.6  1365.89
553.5  1410.37
553.4  1426.65
553.3  1416.19
553.2  1395.91
553.1  1388.314
553  1363.68
552.9  1354.12
552.8  1344.6
552.7  1329.18
552.6  1351.98
552.5  1298.22
552.4  1239.2
552.3  1259.266
552.2  1309.09
552.1  1258.133
552  1246.24
551.9  1225.74
551.8  1282.13
551.7  1193.656
551.6  1270.48
551.5  1332.72
551.4  1232.71
551.3  1201.34
551.2  1218.62
551.1  1214.79
551  1220.762
550.9  1210.2
550.8  1218.86
550.7  1225.32
550.6  1150.82
550.5  1159.49
550.4  1187.47
550.3  1174.32
550.2  1158.98
550.1  1210.09
550  1140.88
549.9  1165.2
549.8  1159.624
549.7  1161.1
549.6  1171.49
549.5  1161.22
549.4  1195.011
549.3  1176.29
549.2  1131.07
549.1  1150.441
549  1119.004
548.9  1125.43
548.8  1135.408
548.7  1148.8
548.6  1137.81
548.5  1155.95
548.4  1106.6
548.3  1087.48
548.2  1073.66
548.1  1098.397
548  1068.26
547.9  1082.44
547.8  1063.99
547.7  1077.25
547.6  1081.48
547.5  1069.6
547.4  1025.01
547.3  1001.1
547.2  1047.27
547.1  1041.58
547  1013.26
546.9  1003.27
546.8  1055.01
546.7  985.604
546.6  999.277
546.5  1025.48
546.4  959.811
546.3  936.732
546.2  995.887
546.1  994.317
546  960.527
545.9  926.023
545.8  991.469
545.7  968.103
545.6  968.074
545.5  913.0684
545.4  945.926
545.3  916.941
545.2  858.831
545.1  866.232
545  875.505
544.9  830.697
544.8  782.9351
544.7  795.602
544.6  816.363
544.5  757.537
544.4  727.007
544.3  712.437
544.2  723.017
544.1  716.492
544  697.007
543.9  647.335
543.8  667.582
543.7  653.405
543.6  646.575
543.5  655.329
543.4  601.437
543.3  619.626
543.2  605.145
543.1  579.322
543  604.305
542.9  604.29
542.8  607.857
542.7  583.812
542.6  591.4427
542.5  621.481
542.4  601.278
542.3  565.17
542.2  585.749
542.1  567.112
542  563.35
541.9  577.524
541.8  523.521
541.7  528.909
541.6  573.431
541.5  532.6
541.4  551.076
541.3  540.957
541.2  554.795
541.1  545.225
541  545.864
540.9  580.882
540.8  551.381
540.7  526.947
540.6  531.062
540.5  563.579
540.4  575.17
540.3  567.885
540.2  569.388
540.1  538.403
540  518.265
539.9  564.863
539.8  577.4524
539.7  507.966
539.6  534.0527
539.5  537.959
539.4  575.185
539.3  567.065
539.2  569.491
539.1  561.4881
539  542.399
538.9  543.671
538.8  570.468
538.7  561.8507
538.6  553.593
538.5  572.003
538.4  521.624
538.3  558.834
538.2  573.384
538.1  577.354
538  608.513
537.9  608.4917
537.8  591.312
537.7  602.092
537.6  606.756
537.5  586.777
537.4  613.292
537.3  622.982
537.2  602.527
537.1  611.097
537  637.2731
536.9  680.661
536.8  687.8474
536.7  693.227
536.6  729.494
536.5  753.4084
536.4  778.607
536.3  880.246
536.2  952.69
536.1  1049.21
536  1220.17
535.9  1386.248
535.8  1647.989
535.7  1993.999
535.6  2364.52
535.5  2901.51
535.4  3674.65
535.3  4428.21
535.2  5427.05
535.1  6609.55
535  7805.2
534.9  9146.69
534.8  10533.748
534.7  11878.56
534.6  13180.07
534.5  14488.879
534.4  15124.22
534.3  15217.376
534.2  15116.933
534.1  14616.519
534  13546.902
533.9  12391.655
533.8  10882.269
533.7  9247.57
533.6  7723.3
533.5  6309.47
533.4  5075.42
533.3  4024.72
533.2  3163.99
533.1  2507.23
533  2003.37
532.9  1704.83
532.8  1465.6
532.7  1206.57
532.6  1150.05
532.5  1053.671
532.4  937.166
532.3  878.289
532.2  812.965
532.1  804.774
532  756.171
531.9  707.063
531.8  721.626
531.7  651.333
531.6  647.977
531.5  632.232
531.4  610.412
531.3  611.28
531.2  591.1513
531.1  589.051
531  605.969
530.9  590.037
530.8  600.45
530.7  581.434
530.6  532.687
530.5  519.293
530.4  535.723
530.3  579.785
530.2  552.7636
530.1  533.2566
530  541.523
529.9  495.748
529.8  534.289
529.7  534.043
529.6  527.614
529.5  533.865
529.4  536.959
529.3  536.81
529.2  504.744
529.1  503.337
529  507.3741
528.9  499.942
528.8  500.234
528.7  506.024
528.6  488.675
528.5  506.41
528.4  477.003
528.3  522.8714
528.2  514.27
528.1  501.692
528  514.051
527.9  522.71
527.8  506.287
527.7  482.372
527.6  511.611
527.5  486.418
527.4  503.229
527.3  521.737
527.2  502.774
527.1  482.7206
527  504.901
526.9  472.833
526.8  508.406
526.7  486.5936
526.6  479.057
526.5  507.498
526.4  510.433
526.3  497.461
526.2  490.588
526.1  483.847
526  502.5
525.9  500.932
525.8  500.281
525.7  483.486
525.6  453.438
525.5  467.85
525.4  480.013
525.3  474.902
525.2  526.2361
525.1  504.164
525  490.682
524.9  486.548
524.8  511.683
524.7  480.063
524.6  485.642
524.5  485.561
524.4  508.027
524.3  520.223
524.2  477.726
524.1  460.684
524  485.247
523.9  451.563
523.8  470.883
523.7  491.359
523.6  497.312
523.5  512.241
523.4  489.169
523.3  454.3062
523.2  491.722
523.1  492.015
523  493.35
522.9  502.029
522.8  481.815
522.7  505.515
522.6  498.189
522.5  496.564
522.4  488.997
522.3  486.5704
522.2  495.408
522.1  465.225
522  510.255
521.9  514.786
521.8  511.8425
521.7  490.784
521.6  481.221
521.5  488.742
521.4  517.905
521.3  490.4251
521.2  512.637
521.1  513.451
521  498.303