File: SiO 3.xy
# Created by:        SpecsLab Prodigy, Version 4.50.2-r79252
#
# XY-Serializer Export Settings:
#   Comment Prefix:           #
#   Output meta data:         yes
#   Energy Axis:              Binding Energy
#   Count Rate:               Counts per Second
#   Separate Scan Data:       no
#   Separate Channel Data:    no
#   External Channel Data:    yes
#   Transmission Function:    no
#   ErrorBar:                 no
#   Operation Results:        yes
#   Time Zone Format:         UTC
#
# Group:             Spectrum Group 0
#
# Region:            O1s
# Acquisition Date:  10/25/19 17:06:56 UTC
# Analysis Method:   XPS
# Analyzer:          Phoibos
# Analyzer Lens:     MediumArea:1.5kV
# Analyzer Slit:     5:7x20\B:open
# Scan Mode:         FixedAnalyzerTransmission
# Curves/Scan:       1
# Values/Curve:      491
# Dwell Time:        0.1
# Excitation Energy: 1486.71
# Binding Energy:    570
# Pass Energy:       10
# Bias Voltage:      90
# Detector Voltage:  1900
# Eff. Workfunction: 4.395
# Source:            Focus
# Comment:
#
# Cycle: 0
# Number of Scans: 12
#
# Cycle: 0, Curve: 0
# Acquisition Date: 10/25/19 17:06:56 UTC
#
# ColumnLabels: energy counts/s
#
570  2373.78
569.9  2409.78
569.8  2328.56
569.7  2350.95
569.6  2344.6
569.5  2334.89
569.4  2310.816
569.3  2344.27
569.2  2307.49
569.1  2259.8
569  2267.32
568.9  2270.45
568.8  2256.47
568.7  2284.18
568.6  2268.2
568.5  2296.18
568.4  2293.21
568.3  2289.59
568.2  2249.15
568.1  2250.94
568  2272.2
567.9  2326.2
567.8  2235.25
567.7  2247.87
567.6  2232.25
567.5  2190.18
567.4  2213.23
567.3  2247.83
567.2  2246.8
567.1  2322.31
567  2368.671
566.9  2340.62
566.8  2344.99
566.7  2373.559
566.6  2413.97
566.5  2368.2
566.4  2483.34
566.3  2389.32
566.2  2351.783
566.1  2393.61
566  2404.49
565.9  2403.66
565.8  2386.59
565.7  2365.24
565.6  2345.73
565.5  2380.542
565.4  2365.8
565.3  2372.97
565.2  2456.45
565.1  2537.065
565  2435.051
564.9  2363.02
564.8  2407.55
564.7  2429.83
564.6  2542.84
564.5  2512.13
564.4  2517.32
564.3  2482.42
564.2  2500.07
564.1  2560.28
564  2510.59
563.9  2552.88
563.8  2533.349
563.7  2588.07
563.6  2604.51
563.5  2577.561
563.4  2670.72
563.3  2729.4
563.2  2601.72
563.1  2626.224
563  2675.4
562.9  2647.07
562.8  2740.47
562.7  2730.628
562.6  2737.51
562.5  2703.75
562.4  2659.36
562.3  2746.11
562.2  2695.08
562.1  2773.7
562  2674.65
561.9  2755.04
561.8  2762.37
561.7  2731.49
561.6  2811.14
561.5  2821.52
561.4  2816.95
561.3  2845.87
561.2  2860.919
561.1  2890.07
561  2866.7
560.9  2913.41
560.8  2813.63
560.7  2817.35
560.6  2860.73
560.5  2822.46
560.4  2748.272
560.3  2768.69
560.2  2792.94
560.1  2989.21
560  2931.27
559.9  2770.53
559.8  2863.79
559.7  2896.16
559.6  2866.54
559.5  2898.277
559.4  2898.3
559.3  2921.574
559.2  2849.7
559.1  2930.95
559  2865.651
558.9  2922.35
558.8  2911.524
558.7  2882.818
558.6  2952.61
558.5  2865.8
558.4  2892.75
558.3  2922.63
558.2  2945.01
558.1  3003.98
558  3008.18
557.9  2974.17
557.8  3100.94
557.7  3046.89
557.6  3033.21
557.5  3099.834
557.4  3079
557.3  3063.04
557.2  3060.03
557.1  3060.91
557  3159.03
556.9  3147.66
556.8  3145.14
556.7  3151.1
556.6  3103.92
556.5  3214.98
556.4  3203.75
556.3  3191.28
556.2  3173.01
556.1  3120.78
556  3094
555.9  3149.78
555.8  3162.894
555.7  3095.37
555.6  3004.31
555.5  2983.35
555.4  2974.68
555.3  2939.75
555.2  2889.26
555.1  2935.97
555  2831.24
554.9  2837.59
554.8  2777.66
554.7  2784.5
554.6  2799.32
554.5  2702.15
554.4  2772.96
554.3  2730.97
554.2  2717.87
554.1  2724.12
554  2711.691
553.9  2660.49
553.8  2667.46
553.7  2594.72
553.6  2597.53
553.5  2627.83
553.4  2582.39
553.3  2548.05
553.2  2581.93
553.1  2568.197
553  2465.739
552.9  2468.02
552.8  2413.43
552.7  2406.61
552.6  2402.86
552.5  2424.44
552.4  2370.79
552.3  2412.51
552.2  2328.12
552.1  2331.71
552  2392.09
551.9  2333.73
551.8  2295.91
551.7  2275.14
551.6  2275.82
551.5  2302.78
551.4  2216.94
551.3  2283.94
551.2  2298.54
551.1  2243.38
551  2198.89
550.9  2199.51
550.8  2223.13
550.7  2190.937
550.6  2217.19
550.5  2220.04
550.4  2309.29
550.3  2282.07
550.2  2257.14
550.1  2225.02
550  2191.094
549.9  2210.85
549.8  2234.35
549.7  2251.03
549.6  2212.4
549.5  2227.78
549.4  2137.581
549.3  2104.49
549.2  2175.83
549.1  2256.36
549  2158.302
548.9  2144.65
548.8  2080.19
548.7  2127.34
548.6  2120.89
548.5  2109.65
548.4  2115.41
548.3  2162.76
548.2  2086.77
548.1  2007.04
548  2010.73
547.9  1991.34
547.8  1959.51
547.7  1965.67
547.6  2021.6
547.5  1969.98
547.4  1919.076
547.3  1988.04
547.2  1971.59
547.1  1931.04
547  1839.17
546.9  1833.32
546.8  1878.98
546.7  1907.03
546.6  1904.51
546.5  1861.602
546.4  1860.37
546.3  1900.04
546.2  1845.6
546.1  1889.51
546  1801.94
545.9  1795.92
545.8  1755.4
545.7  1809.96
545.6  1779.58
545.5  1786.09
545.4  1695.24
545.3  1644.87
545.2  1705.02
545.1  1677.021
545  1654.4
544.9  1584.25
544.8  1488.172
544.7  1491.414
544.6  1499.22
544.5  1471.88
544.4  1406.04
544.3  1419.44
544.2  1425.56
544.1  1407.27
544  1360.6
543.9  1289.04
543.8  1295.5
543.7  1296.85
543.6  1248.35
543.5  1260.91
543.4  1251.17
543.3  1196.33
543.2  1188.64
543.1  1206.28
543  1149.819
542.9  1148.34
542.8  1151.77
542.7  1138.66
542.6  1156.87
542.5  1119.47
542.4  1141.18
542.3  1135.47
542.2  1135.57
542.1  1152.69
542  1113.3
541.9  1097.4
541.8  1113.62
541.7  1166.41
541.6  1085.08
541.5  1116.57
541.4  1120.82
541.3  1111.6
541.2  1065.53
541.1  1090.28
541  1116.61
540.9  1056.81
540.8  1105.96
540.7  1081.65
540.6  1075.686
540.5  1088.69
540.4  1126.81
540.3  1126.26
540.2  1140.58
540.1  1112.23
540  1087.21
539.9  1073.1
539.8  1086.51
539.7  1163.63
539.6  1082.55
539.5  1076.39
539.4  1093.23
539.3  1107.5
539.2  1073.48
539.1  1135.29
539  1148.35
538.9  1107.67
538.8  1109.175
538.7  1159.88
538.6  1129.99
538.5  1078.25
538.4  1082.39
538.3  1113.76
538.2  1178.5
538.1  1170.39
538  1168.298
537.9  1164.73
537.8  1134.303
537.7  1122.06
537.6  1159.38
537.5  1198.82
537.4  1185.41
537.3  1196.77
537.2  1249.98
537.1  1228.31
537  1267.372
536.9  1258.911
536.8  1317.9
536.7  1335.22
536.6  1366.267
536.5  1523.19
536.4  1605.6
536.3  1770.06
536.2  1896.628
536.1  2162.17
536  2483.39
535.9  2901.36
535.8  3427.406
535.7  4080.88
535.6  4881.05
535.5  5859.46
535.4  7305.23
535.3  8797.17
535.2  10558.223
535.1  12589.764
535  15106.834
534.9  17458.46
534.8  19906.969
534.7  22328.279
534.6  24638.344
534.5  26085.344
534.4  27569.588
534.3  27979.969
534.2  27376.089
534.1  26198.069
534  24522.096
533.9  22070.003
533.8  19276.676
533.7  16582.778
533.6  13920.986
533.5  11359.538
533.4  9188.91
533.3  7304.12
533.2  5882.36
533.1  4807.82
533  3899.179
532.9  3287.75
532.8  2888.23
532.7  2513.531
532.6  2288.5
532.5  2054.8
532.4  1862.19
532.3  1771.87
532.2  1660.18
532.1  1585.59
532  1542.71
531.9  1422.16
531.8  1412.501
531.7  1347.196
531.6  1318.87
531.5  1305.87
531.4  1275.1
531.3  1267.63
531.2  1205.66
531.1  1161.44
531  1168.96
530.9  1131.72
530.8  1150.33
530.7  1130.75
530.6  1053.309
530.5  1039.85
530.4  1081.56
530.3  1103.004
530.2  1094.59
530.1  1105.54
530  1083.96
529.9  1070.32
529.8  1056.57
529.7  1051.77
529.6  1057.16
529.5  1085.99
529.4  1044.08
529.3  998.334
529.2  1011.8
529.1  982.65
529  990.055
528.9  1043.17
528.8  1002.57
528.7  1016.192
528.6  1002.233
528.5  1022.57
528.4  1039.43
528.3  1035.41
528.2  1009.17
528.1  1014.805
528  1035.27
527.9  1019.44
527.8  1021.8
527.7  1019.404
527.6  968.631
527.5  1002.05
527.4  998.039
527.3  982.7353
527.2  956.775
527.1  1043.24
527  1008.2
526.9  985.363
526.8  942.309
526.7  980.715
526.6  937.342
526.5  994.68
526.4  1001.25
526.3  1007.66
526.2  999.142
526.1  1025.28
526  945.133
525.9  963.7367
525.8  959.263
525.7  909.4755
525.6  963.631
525.5  968.769
525.4  966.682
525.3  1015.46
525.2  999.987
525.1  997.182
525  1008.66
524.9  992.342
524.8  976.37
524.7  963.989
524.6  983.177
524.5  961.301
524.4  965.099
524.3  981.596
524.2  972.716
524.1  989.082
524  968.411
523.9  966.9796
523.8  959.838
523.7  1011.09
523.6  1009.09
523.5  966.209
523.4  988.202
523.3  1004.836
523.2  962.658
523.1  975.717
523  1000.21
522.9  987.685
522.8  987.881
522.7  977.074
522.6  981.6816
522.5  946.623
522.4  982.652
522.3  964.336
522.2  955.27
522.1  990.054
522  996.074
521.9  982.259
521.8  953.648
521.7  970.664
521.6  964.03
521.5  1010.74
521.4  966.6134
521.3  958.212
521.2  952.297
521.1  966.498
521  973.377