File: SiOx.xy
# Created by:        SpecsLab Prodigy, Version 4.50.2-r79252
#
# XY-Serializer Export Settings:
#   Comment Prefix:           #
#   Output meta data:         yes
#   Energy Axis:              Binding Energy
#   Count Rate:               Counts per Second
#   Separate Scan Data:       no
#   Separate Channel Data:    no
#   External Channel Data:    yes
#   Transmission Function:    no
#   ErrorBar:                 no
#   Operation Results:        yes
#   Time Zone Format:         UTC
#
# Group:             Spectrum Group 0
#
# Region:            Survey
# Acquisition Date:  10/25/19 16:37:31 UTC
# Analysis Method:   XPS
# Analyzer:          Phoibos
# Analyzer Lens:     MediumArea:1.5kV
# Analyzer Slit:     5:7x20\B:open
# Scan Mode:         FixedAnalyzerTransmission
# Curves/Scan:       1
# Values/Curve:      1201
# Dwell Time:        0.1
# Excitation Energy: 1486.71
# Binding Energy:    1200
# Pass Energy:       50
# Bias Voltage:      90
# Detector Voltage:  1900
# Eff. Workfunction: 4.395
# Source:            Focus
# Comment:
#
# Cycle: 0
# Number of Scans: 1
#
# Cycle: 0, Curve: 0
# Acquisition Date: 10/25/19 16:37:31 UTC
#
# ColumnLabels: energy counts/s
#
1200  18360.107
1199  18007.698
1198  18450.273
1197  17712.927
1196  17803.221
1195  19253.325
1194  19434.538
1193  18408.436
1192  18634.657
1191  18503.093
1190  18496.682
1189  19114.673
1188  18227.192
1187  18031.441
1186  17849.618
1185  18716.738
1184  19877.794
1183  18987.082
1182  18737.062
1181  18970.944
1180  18927.509
1179  18860.596
1178  19048.677
1177  18638.167
1176  18455.375
1175  18256.031
1174  18695.704
1173  18717.267
1172  18174.82
1171  18505.89
1170  18705.269
1169  18180.76
1168  18907.59
1167  18566.723
1166  19836.713
1165  19198.063
1164  19210.375
1163  18506.14
1162  19155.851
1161  18921.49
1160  18650.022
1159  18923.022
1158  19265.438
1157  19449.103
1156  19176.618
1155  19794.157
1154  18729.288
1153  19348.141
1152  19019.693
1151  19713.832
1150  19027.902
1149  19503.936
1148  19171.004
1147  19591.931
1146  19026.149
1145  18297.569
1144  18434.513
1143  19577.434
1142  19654.693
1141  19063.389
1140  18801.509
1139  19027.486
1138  19060.925
1137  19054.116
1136  18633.449
1135  18848.676
1134  19115.952
1133  19208.212
1132  19518.252
1131  19391.209
1130  19394.174
1129  19388.172
1128  19445.324
1127  18991.927
1126  19656.543
1125  19226.371
1124  19372.948
1123  19690.601
1122  19918.258
1121  20388.807
1120  19672.229
1119  18829.015
1118  20027.329
1117  20216.498
1116  19599.766
1115  19747.197
1114  19734.061
1113  19922.533
1112  19745.122
1111  20090.338
1110  20812.509
1109  19976.181
1108  19275.16
1107  19607.022
1106  19781.069
1105  20374.267
1104  19127.611
1103  20296.943
1102  20680.738
1101  20490.85
1100  20248.7
1099  21190.993
1098  20277.025
1097  19656.03
1096  20344.133
1095  20018.662
1094  20400.914
1093  19964.584
1092  20222.501
1091  20152.158
1090  20542.622
1089  20647.831
1088  20466.076
1087  20501.068
1086  21925.031
1085  20780.166
1084  20846.199
1083  20771.559
1082  20806.525
1081  20545.121
1080  21089.047
1079  21539.075
1078  21374.078
1077  21673.712
1076  20982.296
1075  20882.062
1074  21306.578
1073  22082.445
1072  21824.792
1071  22059.956
1070  21320.962
1069  21788.043
1068  21653.592
1067  21789.756
1066  21671.914
1065  21997.001
1064  22149.205
1063  21701.264
1062  22032.909
1061  22196.981
1060  22430.163
1059  22861.444
1058  22664.508
1057  22173.241
1056  22192.571
1055  22708.688
1054  22802.506
1053  23245.346
1052  22686.501
1051  23601.597
1050  23519.753
1049  22833.872
1048  22991.548
1047  23055.999
1046  23111.588
1045  23111.535
1044  23628.341
1043  23834.83
1042  23306.082
1041  23413.622
1040  23383.362
1039  23322.05
1038  24520.016
1037  24550.03
1036  24431.889
1035  24291.838
1034  23516.307
1033  24041.783
1032  24570.521
1031  25348.211
1030  24886.284
1029  24966.839
1028  25657.835
1027  25908.122
1026  25344.161
1025  25374.741
1024  25577.773
1023  25408.064
1022  26296.3
1021  26930.968
1020  26639.581
1019  27312.111
1018  26889.58
1017  26267.549
1016  25737.924
1015  25360.977
1014  25321.573
1013  25349.87
1012  25615.771
1011  25260.828
1010  26206.818
1009  27276.103
1008  27021.948
1007  28969.667
1006  29845.415
1005  30166.395
1004  30414.616
1003  31590.832
1002  31451.405
1001  29671.02
1000  27144.554
999  26649.267
998  26191.608
997  25779.011
996  25917.08
995  24538.368
994  23284.623
993  23511.07
992  23821.259
991  24391.267
990  25019.907
989  24461.703
988  24304.249
987  26941.433
986  30626.678
985  34219.34
984  35710.441
983  37549.689
982  42106.714
981  44131.598
980  38480.534
979  33044.581
978  27575.094
977  25422.647
976  23579.232
975  20662.843
974  19235.294
973  18095.501
972  16809.898
971  15331.527
970  13161.155
969  12819.266
968  11753.097
967  10811.935
966  10769.442
965  11545.793
964  10946.783
963  10596.574
962  10348.44
961  10528.209
960  10819.268
959  11125.015
958  10339.865
957  10230.514
956  10281.498
955  10724.726
954  11163.305
953  12001.019
952  11563.934
951  10889.256
950  11011.147
949  10942.847
948  11294.889
947  11013.868
946  11348.273
945  10958.412
944  11314.627
943  11523.023
942  11222.274
941  11725.294
940  10887.66
939  11303.909
938  11044.178
937  11640.34
936  11093.017
935  11439.826
934  11140.87
933  11310.689
932  11407.453
931  11440.172
930  11345.263
929  11584.209
928  11324.858
927  11512.716
926  11769.425
925  11727.445
924  11548.249
923  11582.033
922  11303.838
921  11688.456
920  11532.319
919  11540.513
918  11457.445
917  11494.329
916  11272.06
915  11116.715
914  12172.524
913  11503.839
912  11510.395
911  11446.839
910  11621.827
909  11827.699
908  11577.483
907  11824.88
906  11675.395
905  12271.448
904  12080.474
903  11629.244
902  11425.972
901  11856.42
900  12127.234
899  11630.417
898  11441.31
897  11569.493
896  12283.309
895  12186.38
894  12484.108
893  12230.491
892  12036.267
891  12449.528
890  12422.083
889  13033.598
888  12827.215
887  12589.273
886  12420.087
885  12786.958
884  12690.782
883  12439.101
882  12031.065
881  12167.133
880  12719.116
879  11777.95
878  12360.97
877  12434.564
876  12669.437
875  13669.177
874  12600.689
873  12899.143
872  13514.673
871  12368.628
870  12225.653
869  12883.334
868  12996.743
867  12719.764
866  13107.168
865  13035.657
864  13403.549
863  13378.492
862  13191.04
861  13242.366
860  13277.183
859  13601.919
858  13281.661
857  12458.043
856  12905.901
855  13519.031
854  13022.305
853  12441.774
852  13095.676
851  13928.544
850  13401.766
849  13130.334
848  13484.145
847  14085.148
846  13864.218
845  13651.124
844  14132.413
843  14276.621
842  13736.281
841  14139.177
840  14085.971
839  14654.096
838  13862.983
837  13855.433
836  13656.412
835  13770.807
834  13844.426
833  13239.522
832  13532.714
831  13531.793
830  14145.639
829  13673.526
828  13700.567
827  13885.831
826  14457.344
825  14498.722
824  14849.303
823  14021.979
822  14714.045
821  14728.434
820  13846.843
819  14059.931
818  14309.219
817  14321.831
816  14662.315
815  14307.956
814  14379.001
813  14670.471
812  14580.515
811  14866.804
810  14916.176
809  14955.959
808  15117
807  15002.351
806  14579.203
805  15057.344
804  15127.244
803  14418.08
802  15027.329
801  15303.957
800  14972.411
799  14576.911
798  15050.405
797  15165.809
796  15008.479
795  14851.596
794  14965.169
793  15402.336
792  15105.43
791  15603.027
790  15120.767
789  15050.655
788  15523.014
787  15453.361
786  15517.773
785  15514.828
784  15976.874
783  15245.464
782  15986.493
781  15164.462
780  15754.077
779  15715.703
778  15563.494
777  15768.672
776  15675.689
775  16115.765
774  16492.319
773  16296.518
772  15726.578
771  16161.461
770  16515.437
769  16361.443
768  16161.891
767  15663.363
766  16330.432
765  16508.428
764  16446.908
763  16701.998
762  16906.401
761  16669.604
760  16299.643
759  17233.519
758  16848.395
757  16857.122
756  16536.248
755  16500.752
754  16803.257
753  17103.773
752  16736.216
751  16606.761
750  16548.454
749  16929.613
748  16963.208
747  17104.176
746  17260.12
745  17497.351
744  17617.931
743  17021.577
742  16791.111
741  17491.796
740  17146.49
739  17138.612
738  17304.811
737  17460.192
736  17330.204
735  16751.183
734  17101.894
733  17475.851
732  18191.152
731  17182.93
730  17987.293
729  17594.933
728  17579.706
727  17637.222
726  17728.631
725  18177.348
724  18530.118
723  18212.809
722  18328.028
721  18255.412
720  18575.563
719  17725.68
718  18574.149
717  18746.741
716  18715.567
715  18664.723
714  18484.079
713  18554.859
712  18409.221
711  18926.66
710  19947.773
709  18977.459
708  18903.492
707  18498.64
706  18588.902
705  18795.932
704  18273.149
703  18928.862
702  19073.765
701  18549.742
700  19257.9
699  19447.36
698  19131.702
697  18775.066
696  19484.361
695  19754.027
694  19625.265
693  19920.157
692  19645.16
691  19740.119
690  20682.55
689  20565.274
688  20732.685
687  20431.161
686  20626.993
685  20403.106
684  20854.898
683  20278.43
682  20518.754
681  20719.208
680  19971.7
679  21012.592
678  20804.077
677  20911.775
676  21468.621
675  20922.821
674  20984.713
673  21141.554
672  21442.885
671  20824.48
670  20794.693
669  21411.373
668  21514.072
667  20792.543
666  21059.951
665  21464.407
664  21831.677
663  22290.374
662  22248.904
661  21734.535
660  22079.521
659  22620.8
658  21748.322
657  21635.663
656  22130.368
655  22426.899
654  21416.442
653  22347.019
652  22718.268
651  22283.404
650  22442.839
649  22529.99
648  22393.737
647  23099.861
646  22941.274
645  22833.607
644  23166.081
643  24126.472
642  23183.495
641  23927.048
640  23857.561
639  22716.537
638  23437.111
637  24311.521
636  23635.075
635  24407.6
634  24400.552
633  24172.36
632  23470.264
631  23695.811
630  24255.849
629  24609.867
628  24220.353
627  24628.21
626  24400.226
625  24493.609
624  25035.645
623  24760.306
622  24767.453
621  25420.288
620  24972.87
619  25374.655
618  25390.375
617  25382.593
616  25322.02
615  25687.609
614  26067.544
613  25199.899
612  25818.999
611  26881.093
610  26497.698
609  26203.382
608  26298.124
607  26632.003
606  26604.957
605  25982.106
604  26249.84
603  27101.045
602  27044.443
601  26840.002
600  27252.594
599  28406.719
598  27761.563
597  27638.401
596  27848.242
595  27332.151
594  27730.919
593  28514.431
592  28590.331
591  28799.589
590  28934.603
589  28353.215
588  29522.49
587  30245.043
586  30108.457
585  29503.8
584  29694.481
583  30539.739
582  30653.51
581  30271.758
580  30135.146
579  30028.293
578  29342.548
577  29654.315
576  30140.828
575  29947.416
574  29486.941
573  29445.808
572  29573.213
571  29851.962
570  29442.989
569  28842.911
568  28776.565
567  28709.985
566  30252.253
565  31162.805
564  32870.393
563  32740.909
562  34100.913
561  36744.985
560  36583.453
559  37033.236
558  37710.111
557  38471.497
556  39359.477
555  36895.795
554  35367.341
553  32657.446
552  30337.588
551  28140.443
550  28112.605
549  26934.544
548  25724.186
547  24630.519
546  23161.773
545  20556.87
544  17160.558
543  15259.586
542  14400.156
541  13948.663
540  14077.08
539  14623.276
538  17258.222
537  21133.794
536  49908.664
535  172313.55
534  249935.22
533  111758.6
532  29387.268
531  16616.421
530  14005.41
529  13407.214
528  13004.347
527  12418.126
526  12766.606
525  12394.436
524  12612.253
523  12774.075
522  12514.287
521  12851.792
520  13137.11
519  13139.539
518  12955.853
517  12782.126
516  12422.988
515  12361.36
514  12461.416
513  12516.433
512  12585.945
511  12565.748
510  12819.807
509  12696.297
508  12718.426
507  12213.168
506  12462.123
505  13036.276
504  13252.068
503  12894.152
502  12419.334
501  12665.117
500  13323.817
499  12897.619
498  12762.786
497  13279.806
496  13262.801
495  13746.483
494  13157.957
493  12687.018
492  13241.816
491  13238.973
490  13140.154
489  13008.558
488  13764.473
487  13269.366
486  12816.792
485  13175.712
484  13234.982
483  12756.813
482  13168.443
481  13296.73
480  13157.222
479  13683.639
478  13679.36
477  13980.034
476  13421.944
475  13393.117
474  13172.263
473  12869.448
472  12996.454
471  12692.26
470  13047.284
469  12927.735
468  13505.844
467  13237.8
466  13138.368
465  12986.94
464  12599.509
463  13750.386
462  13406.138
461  13559.151
460  14294.579
459  13656.534
458  14071.202
457  13525.848
456  13843.568
455  13859.859
454  13614.131
453  13843.278
452  13793.733
451  13829.561
450  13652.09
449  13599.03
448  13440.809
447  13702.475
446  13438.465
445  13458.568
444  13794.483
443  13814.653
442  13878.192
441  14146.568
440  14241.451
439  14169.263
438  14078.984
437  13264.701
436  13914.038
435  13733.389
434  13653.938
433  13968.641
432  13505.695
431  13734.383
430  14381.09
429  14274.14
428  14024.685
427  13914.571
426  13883.022
425  14146.976
424  14660.862
423  14860.909
422  13697.164
421  13836.416
420  14642.603
419  14390.143
418  14240.397
417  14141.795
416  14774.877
415  14577
414  14568.753
413  14352.844
412  14296.016
411  14033.602
410  14340.696
409  14243.25
408  13421.825
407  13868.785
406  14366.627
405  13989.016
404  14095.084
403  14047.477
402  14225.699
401  14608.897
400  14796.482
399  14496.397
398  13920.922
397  13797.156
396  14544.538
395  14723.618
394  14265.16
393  14787.693
392  14367.119
391  14752.256
390  14510.811
389  14091.791
388  14224.209
387  14715.169
386  13689.664
385  14388.381
384  14858.496
383  14924.673
382  15272.333
381  14485.689
380  15420.029
379  15357.804
378  14913.073
377  14267.487
376  15001.394
375  14900.83
374  15062.74
373  14441.448
372  14799.742
371  14715.331
370  14045.839
369  14538.272
368  15441.171
367  14929.254
366  14598.708
365  14386.55
364  14944.844
363  15134.613
362  14547.742
361  14746.097
360  14620.264
359  14368.145
358  15043.014
357  15454.053
356  15167.388
355  14603.389
354  14503.794
353  15280.085
352  14698.812
351  14437.729
350  15050.152
349  14724.359
348  14822.031
347  14853.507
346  15115.026
345  15029.601
344  15024.99
343  15608.805
342  15734.805
341  15610.407
340  15237.318
339  14869.028
338  15050.534
337  16189.954
336  15920.691
335  15378.935
334  15073.281
333  15338.985
332  15053.347
331  15444.257
330  15588.227
329  15420.504
328  15303.471
327  15454.835
326  15382.597
325  15603.011
324  15429.468
323  15667.958
322  15968.049
321  15901.041
320  15183.856
319  15777.875
318  15427.134
317  15470.709
316  15444.14
315  15618.78
314  15637.463
313  15211.383
312  15472.984
311  15750.092
310  16316.761
309  15557.758
308  15216.518
307  14922.01
306  15783.238
305  15509.067
304  15539.242
303  15694.056
302  16107.341
301  15870.337
300  15485.007
299  15714.879
298  15162.184
297  15255.649
296  15627.879
295  15931.475
294  15805.929
293  15636.567
292  16067.513
291  16825.601
290  16373.061
289  15925.258
288  16482.631
287  21103.092
286  23709.564
285  19486.627
284  16786.575
283  15612.482
282  15901.462
281  15354.07
280  15592.501
279  15874.183
278  15635.876
277  15663.583
276  16211.616
275  15948.143
274  16119.207
273  15921.155
272  16155.759
271  16328.136
270  15849.092
269  16403.405
268  15773.757
267  15803.229
266  16012.835
265  15643.391
264  16528.344
263  16173.752
262  16310.384
261  16106.582
260  15378.504
259  15535.29
258  15727.903
257  16313.179
256  15997.336
255  16119.498
254  16166.033
253  15730.185
252  16059.119
251  15950.208
250  16378.606
249  16754.732
248  16054.644
247  16286.714
246  16544.439
245  16736.048
244  16380.365
243  16378.556
242  16478.4
241  16856.396
240  17498.659
239  16485.35
238  16535.43
237  16504.751
236  16660.677
235  16480.626
234  16238.501
233  16504.086
232  16320.538
231  16300.021
230  16330.142
229  16370.899
228  16582.068
227  16628.704
226  16554.124
225  16733.7
224  16727.031
223  16852.491
222  16479.948
221  16822.747
220  16699.831
219  16769.376
218  16400.444
217  16989.801
216  16434.298
215  16239.837
214  16541.816
213  16719.802
212  16760.487
211  16879.277
210  16189.782
209  16569.11
208  16722.541
207  17056.603
206  17645.2
205  17061.186
204  17217.769
203  16929.078
202  16690.612
201  16664.23
200  17243.457
199  16928.043
198  17081.93
197  17635.12
196  16853.439
195  16535.416
194  17340.708
193  16534.844
192  16130.638
191  17001.052
190  16963.153
189  16800.194
188  16537.811
187  17045.182
186  18089.023
185  17394.074
184  17582.026
183  17556.864
182  17703.064
181  16965.275
180  17076.417
179  17601.088
178  18159.015
177  17713.251
176  17091.688
175  17093.115
174  17458.389
173  17204.747
172  17192.521
171  16676.086
170  16797.316
169  16788.884
168  16609.055
167  15454.372
166  13746.318
165  12668.362
164  12538.209
163  12047.558
162  11980.925
161  11965.478
160  12576.317
159  14702.831
158  20414.046
157  35099.12
156  49207.159
155  39469.759
154  23851.64
153  18219.747
152  21017.056
151  22633.359
150  15196.164
149  11171.893
148  10009.273
147  10563.649
146  9408.53
145  9153.37
144  9506.34
143  8997.88
142  8837.6
141  9203.43
140  8972.09
139  8850.412
138  9163.23
137  8962.05
136  9350.48
135  8859.97
134  9368.98
133  9100.03
132  8709.594
131  8589.4
130  8816.17
129  8874.86
128  9262.47
127  9359.795
126  9117.832
125  9351.5
124  8949.09
123  8158.924
122  8042.53
121  8322.85
120  8561.3
119  8856.94
118  8587.35
117  8583.14
116  7298.33
115  5953.38
114  4224.35
113  3649.22
112  3369.91
111  2995.075
110  2908.99
109  3027.12
108  3560.87
107  6661.02
106  26949.883
105  53060.564
104  34462.34
103  9621.07
102  4627.247
101  9254.23
100  15673.543
99  7533.73
98  2007.65
97  1651.07
96  1563.38
95  1571.7
94  1551.006
93  1486.88
92  1517.03
91  1645.02
90  1584.65
89  1474.723
88  1615.65
87  1680.52
86  1628.57
85  1692.89
84  1634.41
83  1556.84
82  1775.45
81  1732.35
80  1592.92
79  1696.98
78  1442.57
77  1699.95
76  1692.93
75  1844.03
74  1611.83
73  1623.24
72  1761.77
71  1718.62
70  1983.96
69  1845.26
68  1782.92
67  1759.829
66  1849.92
65  1878.34
64  1807.56
63  1700.14
62  1636.7
61  1946.27
60  1875.06
59  1996.31
58  1936.81
57  1907.25
56  2171.37
55  2352.28
54  2128.76
53  2285.9
52  2285.79
51  2029.95
50  2437.59
49  1955.24
48  1867.08
47  1891.78
46  1860.37
45  1909.75
44  1960.53
43  2047.79
42  1921.72
41  1715.81
40  1807.01
39  1800.87
38  1529.8
37  1400.95
36  1703.9
35  1648.59
34  1766.67
33  1948.03
32  2008.56
31  2267.93
30  3259.07
29  4661.27
28  6375.6
27  7820.04
26  7750.14
25  4252.624
24  1903.47
23  866.658
22  755.343
21  661.179
20  538.625
19  404.6339
18  913.55
17  1667.67
16  2229.45
15  2107.24
14  1847.81
13  1955.33
12  1648.4
11  1578.13
10  1908.07
9  2088.429
8  1794.28
7  1173.87
6  438.748
5  346.474
4  377.745
3  297.658
2  252.773
1  77.86725
0  40.69169

# Region:            C1s
# Acquisition Date:  10/25/19 16:55:32 UTC
# Analysis Method:   XPS
# Analyzer:          Phoibos
# Analyzer Lens:     MediumArea:1.5kV
# Analyzer Slit:     5:7x20\B:open
# Scan Mode:         FixedAnalyzerTransmission
# Curves/Scan:       1
# Values/Curve:      71
# Dwell Time:        0.1
# Excitation Energy: 1486.71
# Binding Energy:    289
# Pass Energy:       10
# Bias Voltage:      90
# Detector Voltage:  1900
# Eff. Workfunction: 4.395
# Source:            Focus
# Comment:
#
# Cycle: 0
# Number of Scans: 12
#
# Cycle: 0, Curve: 0
# Acquisition Date: 10/25/19 16:55:32 UTC
#
# ColumnLabels: energy counts/s
#
289  1046.69
288.9  1078.87
288.8  1068
288.7  1057.01
288.6  1046.42
288.5  1168.77
288.4  1133.43
288.3  1123.98
288.2  1097.22
288.1  1120.765
288  1082.48
287.9  1149.5
287.8  1148.23
287.7  1180.44
287.6  1121.39
287.5  1191.83
287.4  1187.94
287.3  1183.349
287.2  1215.78
287.1  1258.32
287  1309.75
286.9  1370.18
286.8  1439.63
286.7  1513.063
286.6  1568.81
286.5  1659.8
286.4  1665.952
286.3  1704.35
286.2  1718.93
286.1  1750.4
286  1724.84
285.9  1715.11
285.8  1648.6
285.7  1574.58
285.6  1493.66
285.5  1447.36
285.4  1371.39
285.3  1332.37
285.2  1189.55
285.1  1171.63
285  1171.17
284.9  1101.65
284.8  1100.2
284.7  1054.67
284.6  972.284
284.5  988.774
284.4  1034.94
284.3  1040.39
284.2  1016.914
284.1  1042.71
284  1040.21
283.9  1013.17
283.8  1014.86
283.7  1019.01
283.6  1070.64
283.5  1044.8
283.4  1037.17
283.3  1050.404
283.2  1034.86
283.1  1045.08
283  1028.08
282.9  997.997
282.8  1011.18
282.7  1029.37
282.6  996.727
282.5  1029.18
282.4  1078.368
282.3  1081.56
282.2  1045.39
282.1  1039.34
282  1070.86

# Region:            O1s
# Acquisition Date:  10/25/19 17:06:56 UTC
# Analysis Method:   XPS
# Analyzer:          Phoibos
# Analyzer Lens:     MediumArea:1.5kV
# Analyzer Slit:     5:7x20\B:open
# Scan Mode:         FixedAnalyzerTransmission
# Curves/Scan:       1
# Values/Curve:      491
# Dwell Time:        0.1
# Excitation Energy: 1486.71
# Binding Energy:    570
# Pass Energy:       10
# Bias Voltage:      90
# Detector Voltage:  1900
# Eff. Workfunction: 4.395
# Source:            Focus
# Comment:
#
# Cycle: 0
# Number of Scans: 12
#
# Cycle: 0, Curve: 0
# Acquisition Date: 10/25/19 17:06:56 UTC
#
# ColumnLabels: energy counts/s
#
570  2373.78
569.9  2409.78
569.8  2328.56
569.7  2350.95
569.6  2344.6
569.5  2334.89
569.4  2310.816
569.3  2344.27
569.2  2307.49
569.1  2259.8
569  2267.32
568.9  2270.45
568.8  2256.47
568.7  2284.18
568.6  2268.2
568.5  2296.18
568.4  2293.21
568.3  2289.59
568.2  2249.15
568.1  2250.94
568  2272.2
567.9  2326.2
567.8  2235.25
567.7  2247.87
567.6  2232.25
567.5  2190.18
567.4  2213.23
567.3  2247.83
567.2  2246.8
567.1  2322.31
567  2368.671
566.9  2340.62
566.8  2344.99
566.7  2373.559
566.6  2413.97
566.5  2368.2
566.4  2483.34
566.3  2389.32
566.2  2351.783
566.1  2393.61
566  2404.49
565.9  2403.66
565.8  2386.59
565.7  2365.24
565.6  2345.73
565.5  2380.542
565.4  2365.8
565.3  2372.97
565.2  2456.45
565.1  2537.065
565  2435.051
564.9  2363.02
564.8  2407.55
564.7  2429.83
564.6  2542.84
564.5  2512.13
564.4  2517.32
564.3  2482.42
564.2  2500.07
564.1  2560.28
564  2510.59
563.9  2552.88
563.8  2533.349
563.7  2588.07
563.6  2604.51
563.5  2577.561
563.4  2670.72
563.3  2729.4
563.2  2601.72
563.1  2626.224
563  2675.4
562.9  2647.07
562.8  2740.47
562.7  2730.628
562.6  2737.51
562.5  2703.75
562.4  2659.36
562.3  2746.11
562.2  2695.08
562.1  2773.7
562  2674.65
561.9  2755.04
561.8  2762.37
561.7  2731.49
561.6  2811.14
561.5  2821.52
561.4  2816.95
561.3  2845.87
561.2  2860.919
561.1  2890.07
561  2866.7
560.9  2913.41
560.8  2813.63
560.7  2817.35
560.6  2860.73
560.5  2822.46
560.4  2748.272
560.3  2768.69
560.2  2792.94
560.1  2989.21
560  2931.27
559.9  2770.53
559.8  2863.79
559.7  2896.16
559.6  2866.54
559.5  2898.277
559.4  2898.3
559.3  2921.574
559.2  2849.7
559.1  2930.95
559  2865.651
558.9  2922.35
558.8  2911.524
558.7  2882.818
558.6  2952.61
558.5  2865.8
558.4  2892.75
558.3  2922.63
558.2  2945.01
558.1  3003.98
558  3008.18
557.9  2974.17
557.8  3100.94
557.7  3046.89
557.6  3033.21
557.5  3099.834
557.4  3079
557.3  3063.04
557.2  3060.03
557.1  3060.91
557  3159.03
556.9  3147.66
556.8  3145.14
556.7  3151.1
556.6  3103.92
556.5  3214.98
556.4  3203.75
556.3  3191.28
556.2  3173.01
556.1  3120.78
556  3094
555.9  3149.78
555.8  3162.894
555.7  3095.37
555.6  3004.31
555.5  2983.35
555.4  2974.68
555.3  2939.75
555.2  2889.26
555.1  2935.97
555  2831.24
554.9  2837.59
554.8  2777.66
554.7  2784.5
554.6  2799.32
554.5  2702.15
554.4  2772.96
554.3  2730.97
554.2  2717.87
554.1  2724.12
554  2711.691
553.9  2660.49
553.8  2667.46
553.7  2594.72
553.6  2597.53
553.5  2627.83
553.4  2582.39
553.3  2548.05
553.2  2581.93
553.1  2568.197
553  2465.739
552.9  2468.02
552.8  2413.43
552.7  2406.61
552.6  2402.86
552.5  2424.44
552.4  2370.79
552.3  2412.51
552.2  2328.12
552.1  2331.71
552  2392.09
551.9  2333.73
551.8  2295.91
551.7  2275.14
551.6  2275.82
551.5  2302.78
551.4  2216.94
551.3  2283.94
551.2  2298.54
551.1  2243.38
551  2198.89
550.9  2199.51
550.8  2223.13
550.7  2190.937
550.6  2217.19
550.5  2220.04
550.4  2309.29
550.3  2282.07
550.2  2257.14
550.1  2225.02
550  2191.094
549.9  2210.85
549.8  2234.35
549.7  2251.03
549.6  2212.4
549.5  2227.78
549.4  2137.581
549.3  2104.49
549.2  2175.83
549.1  2256.36
549  2158.302
548.9  2144.65
548.8  2080.19
548.7  2127.34
548.6  2120.89
548.5  2109.65
548.4  2115.41
548.3  2162.76
548.2  2086.77
548.1  2007.04
548  2010.73
547.9  1991.34
547.8  1959.51
547.7  1965.67
547.6  2021.6
547.5  1969.98
547.4  1919.076
547.3  1988.04
547.2  1971.59
547.1  1931.04
547  1839.17
546.9  1833.32
546.8  1878.98
546.7  1907.03
546.6  1904.51
546.5  1861.602
546.4  1860.37
546.3  1900.04
546.2  1845.6
546.1  1889.51
546  1801.94
545.9  1795.92
545.8  1755.4
545.7  1809.96
545.6  1779.58
545.5  1786.09
545.4  1695.24
545.3  1644.87
545.2  1705.02
545.1  1677.021
545  1654.4
544.9  1584.25
544.8  1488.172
544.7  1491.414
544.6  1499.22
544.5  1471.88
544.4  1406.04
544.3  1419.44
544.2  1425.56
544.1  1407.27
544  1360.6
543.9  1289.04
543.8  1295.5
543.7  1296.85
543.6  1248.35
543.5  1260.91
543.4  1251.17
543.3  1196.33
543.2  1188.64
543.1  1206.28
543  1149.819
542.9  1148.34
542.8  1151.77
542.7  1138.66
542.6  1156.87
542.5  1119.47
542.4  1141.18
542.3  1135.47
542.2  1135.57
542.1  1152.69
542  1113.3
541.9  1097.4
541.8  1113.62
541.7  1166.41
541.6  1085.08
541.5  1116.57
541.4  1120.82
541.3  1111.6
541.2  1065.53
541.1  1090.28
541  1116.61
540.9  1056.81
540.8  1105.96
540.7  1081.65
540.6  1075.686
540.5  1088.69
540.4  1126.81
540.3  1126.26
540.2  1140.58
540.1  1112.23
540  1087.21
539.9  1073.1
539.8  1086.51
539.7  1163.63
539.6  1082.55
539.5  1076.39
539.4  1093.23
539.3  1107.5
539.2  1073.48
539.1  1135.29
539  1148.35
538.9  1107.67
538.8  1109.175
538.7  1159.88
538.6  1129.99
538.5  1078.25
538.4  1082.39
538.3  1113.76
538.2  1178.5
538.1  1170.39
538  1168.298
537.9  1164.73
537.8  1134.303
537.7  1122.06
537.6  1159.38
537.5  1198.82
537.4  1185.41
537.3  1196.77
537.2  1249.98
537.1  1228.31
537  1267.372
536.9  1258.911
536.8  1317.9
536.7  1335.22
536.6  1366.267
536.5  1523.19
536.4  1605.6
536.3  1770.06
536.2  1896.628
536.1  2162.17
536  2483.39
535.9  2901.36
535.8  3427.406
535.7  4080.88
535.6  4881.05
535.5  5859.46
535.4  7305.23
535.3  8797.17
535.2  10558.223
535.1  12589.764
535  15106.834
534.9  17458.46
534.8  19906.969
534.7  22328.279
534.6  24638.344
534.5  26085.344
534.4  27569.588
534.3  27979.969
534.2  27376.089
534.1  26198.069
534  24522.096
533.9  22070.003
533.8  19276.676
533.7  16582.778
533.6  13920.986
533.5  11359.538
533.4  9188.91
533.3  7304.12
533.2  5882.36
533.1  4807.82
533  3899.179
532.9  3287.75
532.8  2888.23
532.7  2513.531
532.6  2288.5
532.5  2054.8
532.4  1862.19
532.3  1771.87
532.2  1660.18
532.1  1585.59
532  1542.71
531.9  1422.16
531.8  1412.501
531.7  1347.196
531.6  1318.87
531.5  1305.87
531.4  1275.1
531.3  1267.63
531.2  1205.66
531.1  1161.44
531  1168.96
530.9  1131.72
530.8  1150.33
530.7  1130.75
530.6  1053.309
530.5  1039.85
530.4  1081.56
530.3  1103.004
530.2  1094.59
530.1  1105.54
530  1083.96
529.9  1070.32
529.8  1056.57
529.7  1051.77
529.6  1057.16
529.5  1085.99
529.4  1044.08
529.3  998.334
529.2  1011.8
529.1  982.65
529  990.055
528.9  1043.17
528.8  1002.57
528.7  1016.192
528.6  1002.233
528.5  1022.57
528.4  1039.43
528.3  1035.41
528.2  1009.17
528.1  1014.805
528  1035.27
527.9  1019.44
527.8  1021.8
527.7  1019.404
527.6  968.631
527.5  1002.05
527.4  998.039
527.3  982.7353
527.2  956.775
527.1  1043.24
527  1008.2
526.9  985.363
526.8  942.309
526.7  980.715
526.6  937.342
526.5  994.68
526.4  1001.25
526.3  1007.66
526.2  999.142
526.1  1025.28
526  945.133
525.9  963.7367
525.8  959.263
525.7  909.4755
525.6  963.631
525.5  968.769
525.4  966.682
525.3  1015.46
525.2  999.987
525.1  997.182
525  1008.66
524.9  992.342
524.8  976.37
524.7  963.989
524.6  983.177
524.5  961.301
524.4  965.099
524.3  981.596
524.2  972.716
524.1  989.082
524  968.411
523.9  966.9796
523.8  959.838
523.7  1011.09
523.6  1009.09
523.5  966.209
523.4  988.202
523.3  1004.836
523.2  962.658
523.1  975.717
523  1000.21
522.9  987.685
522.8  987.881
522.7  977.074
522.6  981.6816
522.5  946.623
522.4  982.652
522.3  964.336
522.2  955.27
522.1  990.054
522  996.074
521.9  982.259
521.8  953.648
521.7  970.664
521.6  964.03
521.5  1010.74
521.4  966.6134
521.3  958.212
521.2  952.297
521.1  966.498
521  973.377

# Region:            Si2p
# Acquisition Date:  10/25/19 17:10:45 UTC
# Analysis Method:   XPS
# Analyzer:          Phoibos
# Analyzer Lens:     MediumArea:1.5kV
# Analyzer Slit:     5:7x20\B:open
# Scan Mode:         FixedAnalyzerTransmission
# Curves/Scan:       1
# Values/Curve:      151
# Dwell Time:        0.1
# Excitation Energy: 1486.71
# Binding Energy:    110
# Pass Energy:       10
# Bias Voltage:      90
# Detector Voltage:  1900
# Eff. Workfunction: 4.395
# Source:            Focus
# Comment:
#
# Cycle: 0
# Number of Scans: 12
#
# Cycle: 0, Curve: 0
# Acquisition Date: 10/25/19 17:10:45 UTC
#
# ColumnLabels: energy counts/s
#
110  188.945
109.9  177.468
109.8  172.2697
109.7  183.703
109.6  169.421
109.5  174.547
109.4  163.533
109.3  168.344
109.2  157.305
109.1  181.176
109  171.673
108.9  171.775
108.8  158.031
108.7  173.97
108.6  167.52
108.5  170.094
108.4  176.672
108.3  177.743
108.2  175.202
108.1  178.864
108  165.34
107.9  177.18
107.8  159.866
107.7  152.043
107.6  184.704
107.5  173.061
107.4  206.521
107.3  195.161
107.2  214.411
107.1  248.169
107  259.414
106.9  288.39
106.8  335.988
106.7  374.781
106.6  450.215
106.5  528.007
106.4  660.2295
106.3  794.666
106.2  1015.53
106.1  1205.31
106  1489.26
105.9  1760.09
105.8  2109.4
105.7  2450.11
105.6  2797.11
105.5  3058.25
105.4  3528.837
105.3  3806.975
105.2  4038.91
105.1  4226.72
105  4337.21
104.9  4261
104.8  4188.5
104.7  4031.05
104.6  3712.31
104.5  3374.23
104.4  3005.44
104.3  2564.11
104.2  2208.669
104.1  1836.7
104  1516.72
103.9  1192.08
103.8  912.271
103.7  747.2476
103.6  587.9145
103.5  517.781
103.4  453.382
103.3  398.46
103.2  326.94
103.1  316.944
103  273.659
102.9  243.169
102.8  226.619
102.7  213.135
102.6  233.573
102.5  218.156
102.4  186.94
102.3  184.12
102.2  201.679
102.1  195.393
102  195.182
101.9  196.229
101.8  182.829
101.7  200.556
101.6  176.809
101.5  181.129
101.4  186.475
101.3  195.266
101.2  215.229
101.1  250.344
101  292.886
100.9  406.612
100.8  517.46
100.7  701.338
100.6  907.148
100.5  1106.21
100.4  1167.41
100.3  1122.23
100.2  1143.64
100.1  1280.7
100  1486.06
99.9  1682.38
99.8  1654.52
99.7  1352.65
99.6  906.045
99.5  531.577
99.4  263.498
99.3  181.31
99.2  163.677
99.1  142.485
99  127.653
98.9  133.184
98.8  123.756
98.7  116.266
98.6  110.835
98.5  113.338
98.4  133.156
98.3  107.191
98.2  92.4407
98.1  114.497
98  103.653
97.9  107.12
97.8  107.5879
97.7  114.949
97.6  114.968
97.5  106.02
97.4  110.45
97.3  107.412
97.2  103.049
97.1  117.54
97  109.59
96.9  96.1498
96.8  101.502
96.7  123.65
96.6  101.821
96.5  109.937
96.4  111.042
96.3  116.024
96.2  109.212
96.1  107.073
96  94.8259
95.9  120.473
95.8  121.238
95.7  115.764
95.6  109.998
95.5  115.464
95.4  102.27
95.3  94.6544
95.2  94.15432
95.1  107.742
95  95.7234

# Group:             Ajuste altura
#
# Group:             Spectrum Group 5
#
# Region:            C1s
# Acquisition Date:  10/25/19 17:26:35 UTC
# Analysis Method:   XPS
# Analyzer:          Phoibos
# Analyzer Lens:     MediumArea:1.5kV
# Analyzer Slit:     5:7x20\B:open
# Scan Mode:         FixedAnalyzerTransmission
# Curves/Scan:       1
# Values/Curve:      71
# Dwell Time:        0.1
# Excitation Energy: 1486.71
# Binding Energy:    289
# Pass Energy:       10
# Bias Voltage:      90
# Detector Voltage:  1900
# Eff. Workfunction: 4.395
# Source:            Focus
# Comment:
#
# Cycle: 0
# Number of Scans: 12
#
# Cycle: 0, Curve: 0
# Acquisition Date: 10/25/19 17:26:35 UTC
#
# ColumnLabels: energy counts/s
#
289  1014.98
288.9  987.49
288.8  988.0005
288.7  967.569
288.6  1031.12
288.5  1043.04
288.4  1025.5
288.3  1034.38
288.2  1049.12
288.1  1006.11
288  1046.09
287.9  1023.416
287.8  1047.65
287.7  1082.85
287.6  1079.7
287.5  1090.27
287.4  1104.12
287.3  1132.92
287.2  1205.91
287.1  1182.92
287  1264.75
286.9  1263.41
286.8  1316.43
286.7  1390.94
286.6  1445.42
286.5  1467.59
286.4  1515.11
286.3  1545.404
286.2  1615.18
286.1  1602.84
286  1607.65
285.9  1556.22
285.8  1530.96
285.7  1493.36
285.6  1443.991
285.5  1352.95
285.4  1337.87
285.3  1235.04
285.2  1152.94
285.1  1144.16
285  1158.201
284.9  1085.98
284.8  1042.44
284.7  1047.06
284.6  994.699
284.5  986.183
284.4  994.014
284.3  946.813
284.2  987.542
284.1  953.224
284  948.267
283.9  967.634
283.8  984.909
283.7  991.645
283.6  968.033
283.5  971.967
283.4  998.453
283.3  1007.95
283.2  967.222
283.1  931.52
283  970.699
282.9  1009.89
282.8  943.973
282.7  973.803
282.6  958.852
282.5  956.488
282.4  945.533
282.3  977.06
282.2  941.072
282.1  909.678
282  985.7748

# Region:            O1s
# Acquisition Date:  10/25/19 17:37:58 UTC
# Analysis Method:   XPS
# Analyzer:          Phoibos
# Analyzer Lens:     MediumArea:1.5kV
# Analyzer Slit:     5:7x20\B:open
# Scan Mode:         FixedAnalyzerTransmission
# Curves/Scan:       1
# Values/Curve:      491
# Dwell Time:        0.1
# Excitation Energy: 1486.71
# Binding Energy:    570
# Pass Energy:       10
# Bias Voltage:      90
# Detector Voltage:  1900
# Eff. Workfunction: 4.395
# Source:            Focus
# Comment:
#
# Cycle: 0
# Number of Scans: 12
#
# Cycle: 0, Curve: 0
# Acquisition Date: 10/25/19 17:37:58 UTC
#
# ColumnLabels: energy counts/s
#
570  2193.96
569.9  2283.41
569.8  2270.79
569.7  2250.1
569.6  2227.64
569.5  2217.986
569.4  2138.37
569.3  2133.71
569.2  2239.83
569.1  2254.55
569  2145.46
568.9  2202.04
568.8  2269.42
568.7  2201.77
568.6  2221.68
568.5  2181.48
568.4  2175.67
568.3  2208.76
568.2  2162.72
568.1  2165.05
568  2149.31
567.9  2224.94
567.8  2236.233
567.7  2202.89
567.6  2219.09
567.5  2150.4
567.4  2185.44
567.3  2218.89
567.2  2194.05
567.1  2189.02
567  2224.721
566.9  2247.65
566.8  2259.45
566.7  2300.93
566.6  2293.14
566.5  2284.894
566.4  2223.665
566.3  2274.14
566.2  2303.98
566.1  2245.53
566  2304.74
565.9  2299.673
565.8  2289.63
565.7  2279.91
565.6  2303.09
565.5  2294.34
565.4  2306.42
565.3  2308.71
565.2  2388.99
565.1  2392.04
565  2351.56
564.9  2350.34
564.8  2379.87
564.7  2470.48
564.6  2428.8
564.5  2420.95
564.4  2379.462
564.3  2389.7
564.2  2458.81
564.1  2429.09
564  2437.38
563.9  2516.59
563.8  2548.32
563.7  2513.4
563.6  2530.86
563.5  2456.39
563.4  2435.61
563.3  2448.95
563.2  2554.34
563.1  2570.91
563  2486.83
562.9  2596.71
562.8  2537.67
562.7  2589.29
562.6  2605.93
562.5  2624.23
562.4  2589.48
562.3  2588.12
562.2  2628.1
562.1  2615.48
562  2633.35
561.9  2656.256
561.8  2598.76
561.7  2704.65
561.6  2671.95
561.5  2557.56
561.4  2573.11
561.3  2654.8
561.2  2718.88
561.1  2596.51
561  2657.78
560.9  2742.29
560.8  2785.54
560.7  2689.86
560.6  2595.12
560.5  2735.66
560.4  2743.75
560.3  2726.291
560.2  2792.99
560.1  2713.55
560  2759.84
559.9  2743.85
559.8  2711.9
559.7  2800.908
559.6  2787.74
559.5  2803.42
559.4  2872.39
559.3  2753.06
559.2  2762.31
559.1  2720.65
559  2850.2
558.9  2810.58
558.8  2819.81
558.7  2802.59
558.6  2786.145
558.5  2794.63
558.4  2838.97
558.3  2781.87
558.2  2802.12
558.1  2773.734
558  2862.21
557.9  2857.32
557.8  2959.142
557.7  2981.43
557.6  2866.23
557.5  2899.36
557.4  2967.41
557.3  2899.24
557.2  2903.98
557.1  2981.37
557  3039.27
556.9  3049.84
556.8  2969.66
556.7  3034.84
556.6  3056.767
556.5  2984.88
556.4  2975.43
556.3  2965.96
556.2  2965.5
556.1  3013.33
556  2932.19
555.9  2866.8
555.8  2867.8
555.7  2863.57
555.6  2865.48
555.5  2826.15
555.4  2833.77
555.3  2806.74
555.2  2760.18
555.1  2773.84
555  2725.19
554.9  2714.01
554.8  2709.91
554.7  2648.44
554.6  2793.71
554.5  2702.87
554.4  2618.64
554.3  2563.48
554.2  2594.46
554.1  2606.22
554  2564.14
553.9  2590.15
553.8  2506.07
553.7  2472.89
553.6  2472.66
553.5  2435.8
553.4  2380.23
553.3  2416.04
553.2  2366.82
553.1  2410.39
553  2353.43
552.9  2318.94
552.8  2287.303
552.7  2299.69
552.6  2253.23
552.5  2282.03
552.4  2273.85
552.3  2198.62
552.2  2205.57
552.1  2226.387
552  2253.99
551.9  2198.83
551.8  2266.77
551.7  2163.759
551.6  2205.95
551.5  2163.99
551.4  2121.28
551.3  2182.543
551.2  2165.081
551.1  2119.65
551  2161.91
550.9  2034.65
550.8  2087.44
550.7  2149.81
550.6  2097
550.5  2131.06
550.4  2161.14
550.3  2123.01
550.2  2107.79
550.1  2143.77
550  2171.69
549.9  2141.56
549.8  2103.336
549.7  2047.77
549.6  2075.28
549.5  2095.6
549.4  2105.32
549.3  2019.84
549.2  2097.98
549.1  2045.86
549  2043.23
548.9  2059.174
548.8  2000.95
548.7  2016.6
548.6  1988.98
548.5  1998.46
548.4  2025
548.3  1972.32
548.2  1983.78
548.1  1937.05
548  1930.94
547.9  1935.13
547.8  1907.21
547.7  1849.77
547.6  1887.241
547.5  1841.82
547.4  1805.24
547.3  1873.58
547.2  1862.775
547.1  1841.86
547  1795.72
546.9  1754.5
546.8  1782.61
546.7  1809.3
546.6  1802.5
546.5  1791.67
546.4  1824.31
546.3  1782.32
546.2  1777.13
546.1  1790.41
546  1831
545.9  1810.85
545.8  1779.52
545.7  1708.39
545.6  1649.19
545.5  1698.67
545.4  1649.18
545.3  1644.02
545.2  1584.99
545.1  1528.74
545  1529
544.9  1489.53
544.8  1494.34
544.7  1492.46
544.6  1395.66
544.5  1424.02
544.4  1404.93
544.3  1402.46
544.2  1360.67
544.1  1313.92
544  1231.97
543.9  1257.86
543.8  1258.47
543.7  1235.1
543.6  1197.55
543.5  1153.3
543.4  1167.061
543.3  1196.38
543.2  1109.49
543.1  1081.74
543  1122.2
542.9  1085.35
542.8  1096.03
542.7  1078.55
542.6  1084.28
542.5  1046.69
542.4  1082.35
542.3  1076.64
542.2  1088.45
542.1  1100.205
542  1070.842
541.9  1062.76
541.8  1031.03
541.7  1045.13
541.6  1070.85
541.5  1013.93
541.4  972.554
541.3  1021.56
541.2  1022.474
541.1  1070.75
541  1049.26
540.9  1074.42
540.8  1059.997
540.7  1053.15
540.6  1033.67
540.5  1041.24
540.4  1047.58
540.3  1012.77
540.2  1056.16
540.1  1038.17
540  1017.34
539.9  1000.29
539.8  1013.66
539.7  1046.49
539.6  1033.53
539.5  1058.3
539.4  1059.539
539.3  1035.45
539.2  1052.48
539.1  1079.15
539  1053.81
538.9  1035.742
538.8  1068.43
538.7  1073.28
538.6  1055.34
538.5  1099.48
538.4  1071.3
538.3  1060.81
538.2  1048.92
538.1  1076.16
538  1037.755
537.9  1081.52
537.8  1101.07
537.7  1102.96
537.6  1089.83
537.5  1131.67
537.4  1107.94
537.3  1155.486
537.2  1211.01
537.1  1208.64
537  1239.008
536.9  1245.81
536.8  1279.64
536.7  1300.79
536.6  1404.95
536.5  1515.941
536.4  1640.6
536.3  1748.299
536.2  1930.659
536.1  2201.131
536  2626.83
535.9  2985.21
535.8  3453.95
535.7  4089.83
535.6  4991.791
535.5  6055.74
535.4  7262.04
535.3  8828.76
535.2  10329.83
535.1  12441.281
535  14584.841
534.9  16725.131
534.8  19093.113
534.7  21486.134
534.6  23461.564
534.5  25154.86
534.4  25914.364
534.3  25998.589
534.2  25854.788
534.1  24732.75
534  22971.007
533.9  20918.058
533.8  18556.335
533.7  15816.577
533.6  13136.008
533.5  10797.339
533.4  8709.85
533.3  7016.48
533.2  5637.36
533.1  4464.17
533  3692.18
532.9  3146.63
532.8  2708.168
532.7  2395.89
532.6  2091.81
532.5  1952.41
532.4  1831.42
532.3  1644.31
532.2  1536.27
532.1  1526.1
532  1445.09
531.9  1376.03
531.8  1307.04
531.7  1222.041
531.6  1220.12
531.5  1252.11
531.4  1171.53
531.3  1159.97
531.2  1219.36
531.1  1118.03
531  1125.13
530.9  1123.399
530.8  1096.93
530.7  1046.94
530.6  1047.96
530.5  1041.81
530.4  1006.06
530.3  1028.87
530.2  1019.85
530.1  1036.64
530  1044.458
529.9  958.648
529.8  1016.77
529.7  1000.53
529.6  1014.6
529.5  993.828
529.4  980.383
529.3  989.808
529.2  947.31
529.1  984.283
529  961.424
528.9  954.5848
528.8  1001.05
528.7  1028.68
528.6  986.358
528.5  964.523
528.4  968.162
528.3  978.8337
[...]
552.3  1259.266
552.2  1309.09
552.1  1258.133
552  1246.24
551.9  1225.74
551.8  1282.13
551.7  1193.656
551.6  1270.48
551.5  1332.72
551.4  1232.71
551.3  1201.34
551.2  1218.62
551.1  1214.79
551  1220.762
550.9  1210.2
550.8  1218.86
550.7  1225.32
550.6  1150.82
550.5  1159.49
550.4  1187.47
550.3  1174.32
550.2  1158.98
550.1  1210.09
550  1140.88
549.9  1165.2
549.8  1159.624
549.7  1161.1
549.6  1171.49
549.5  1161.22
549.4  1195.011
549.3  1176.29
549.2  1131.07
549.1  1150.441
549  1119.004
548.9  1125.43
548.8  1135.408
548.7  1148.8
548.6  1137.81
548.5  1155.95
548.4  1106.6
548.3  1087.48
548.2  1073.66
548.1  1098.397
548  1068.26
547.9  1082.44
547.8  1063.99
547.7  1077.25
547.6  1081.48
547.5  1069.6
547.4  1025.01
547.3  1001.1
547.2  1047.27
547.1  1041.58
547  1013.26
546.9  1003.27
546.8  1055.01
546.7  985.604
546.6  999.277
546.5  1025.48
546.4  959.811
546.3  936.732
546.2  995.887
546.1  994.317
546  960.527
545.9  926.023
545.8  991.469
545.7  968.103
545.6  968.074
545.5  913.0684
545.4  945.926
545.3  916.941
545.2  858.831
545.1  866.232
545  875.505
544.9  830.697
544.8  782.9351
544.7  795.602
544.6  816.363
544.5  757.537
544.4  727.007
544.3  712.437
544.2  723.017
544.1  716.492
544  697.007
543.9  647.335
543.8  667.582
543.7  653.405
543.6  646.575
543.5  655.329
543.4  601.437
543.3  619.626
543.2  605.145
543.1  579.322
543  604.305
542.9  604.29
542.8  607.857
542.7  583.812
542.6  591.4427
542.5  621.481
542.4  601.278
542.3  565.17
542.2  585.749
542.1  567.112
542  563.35
541.9  577.524
541.8  523.521
541.7  528.909
541.6  573.431
541.5  532.6
541.4  551.076
541.3  540.957
541.2  554.795
541.1  545.225
541  545.864
540.9  580.882
540.8  551.381
540.7  526.947
540.6  531.062
540.5  563.579
540.4  575.17
540.3  567.885
540.2  569.388
540.1  538.403
540  518.265
539.9  564.863
539.8  577.4524
539.7  507.966
539.6  534.0527
539.5  537.959
539.4  575.185
539.3  567.065
539.2  569.491
539.1  561.4881
539  542.399
538.9  543.671
538.8  570.468
538.7  561.8507
538.6  553.593
538.5  572.003
538.4  521.624
538.3  558.834
538.2  573.384
538.1  577.354
538  608.513
537.9  608.4917
537.8  591.312
537.7  602.092
537.6  606.756
537.5  586.777
537.4  613.292
537.3  622.982
537.2  602.527
537.1  611.097
537  637.2731
536.9  680.661
536.8  687.8474
536.7  693.227
536.6  729.494
536.5  753.4084
536.4  778.607
536.3  880.246
536.2  952.69
536.1  1049.21
536  1220.17
535.9  1386.248
535.8  1647.989
535.7  1993.999
535.6  2364.52
535.5  2901.51
535.4  3674.65
535.3  4428.21
535.2  5427.05
535.1  6609.55
535  7805.2
534.9  9146.69
534.8  10533.748
534.7  11878.56
534.6  13180.07
534.5  14488.879
534.4  15124.22
534.3  15217.376
534.2  15116.933
534.1  14616.519
534  13546.902
533.9  12391.655
533.8  10882.269
533.7  9247.57
533.6  7723.3
533.5  6309.47
533.4  5075.42
533.3  4024.72
533.2  3163.99
533.1  2507.23
533  2003.37
532.9  1704.83
532.8  1465.6
532.7  1206.57
532.6  1150.05
532.5  1053.671
532.4  937.166
532.3  878.289
532.2  812.965
532.1  804.774
532  756.171
531.9  707.063
531.8  721.626
531.7  651.333
531.6  647.977
531.5  632.232
531.4  610.412
531.3  611.28
531.2  591.1513
531.1  589.051
531  605.969
530.9  590.037
530.8  600.45
530.7  581.434
530.6  532.687
530.5  519.293
530.4  535.723
530.3  579.785
530.2  552.7636
530.1  533.2566
530  541.523
529.9  495.748
529.8  534.289
529.7  534.043
529.6  527.614
529.5  533.865
529.4  536.959
529.3  536.81
529.2  504.744
529.1  503.337
529  507.3741
528.9  499.942
528.8  500.234
528.7  506.024
528.6  488.675
528.5  506.41
528.4  477.003
528.3  522.8714
528.2  514.27
528.1  501.692
528  514.051
527.9  522.71
527.8  506.287
527.7  482.372
527.6  511.611
527.5  486.418
527.4  503.229
527.3  521.737
527.2  502.774
527.1  482.7206
527  504.901
526.9  472.833
526.8  508.406
526.7  486.5936
526.6  479.057
526.5  507.498
526.4  510.433
526.3  497.461
526.2  490.588
526.1  483.847
526  502.5
525.9  500.932
525.8  500.281
525.7  483.486
525.6  453.438
525.5  467.85
525.4  480.013
525.3  474.902
525.2  526.2361
525.1  504.164
525  490.682
524.9  486.548
524.8  511.683
524.7  480.063
524.6  485.642
524.5  485.561
524.4  508.027
524.3  520.223
524.2  477.726
524.1  460.684
524  485.247
523.9  451.563
523.8  470.883
523.7  491.359
523.6  497.312
523.5  512.241
523.4  489.169
523.3  454.3062
523.2  491.722
523.1  492.015
523  493.35
522.9  502.029
522.8  481.815
522.7  505.515
522.6  498.189
522.5  496.564
522.4  488.997
522.3  486.5704
522.2  495.408
522.1  465.225
522  510.255
521.9  514.786
521.8  511.8425
521.7  490.784
521.6  481.221
521.5  488.742
521.4  517.905
521.3  490.4251
521.2  512.637
521.1  513.451
521  498.303

# Region:            Si2p
# Acquisition Date:  10/25/19 19:18:37 UTC
# Analysis Method:   XPS
# Analyzer:          Phoibos
# Analyzer Lens:     MediumArea:1.5kV
# Analyzer Slit:     5:7x20\B:open
# Scan Mode:         FixedAnalyzerTransmission
# Curves/Scan:       1
# Values/Curve:      151
# Dwell Time:        0.1
# Excitation Energy: 1486.71
# Binding Energy:    110
# Pass Energy:       10
# Bias Voltage:      90
# Detector Voltage:  1900
# Eff. Workfunction: 4.395
# Source:            Focus
# Comment:
#
# Cycle: 0
# Number of Scans: 12
#
# Cycle: 0, Curve: 0
# Acquisition Date: 10/25/19 19:18:37 UTC
#
# ColumnLabels: energy counts/s
#
110  94.3971
109.9  90.64785
109.8  99.07172
109.7  91.5071
109.6  87.9865
109.5  95.9772
109.4  92.1495
109.3  93.2687
109.2  96.0993
109.1  96.573
109  100.697
108.9  104.542
108.8  95.0983
108.7  82.9924
108.6  89.3709
108.5  99.4796
108.4  85.8255
108.3  79.8247
108.2  85.8215
108.1  83.7478
108  85.6768
107.9  96.4433
107.8  100.7112
107.7  85.4863
107.6  91.8251
107.5  107.134
107.4  107.552
107.3  109.133
107.2  110.52
107.1  126.7823
107  138.358
106.9  146.436
106.8  170.374
106.7  182.247
106.6  231.4606
106.5  306.199
106.4  369.041
106.3  434.099
106.2  539.729
106.1  661.092
106  844.951
105.9  1023.47
105.8  1223.51
105.7  1462.17
105.6  1671.26
105.5  1843.28
105.4  2062.15
105.3  2213.46
105.2  2467.46
105.1  2570.94
105  2529.24
104.9  2577.72
104.8  2610.42
104.7  2531.45
104.6  2399.477
104.5  2188.05
104.4  1963.925
104.3  1685.38
104.2  1419.49
104.1  1185.18
104  914.318
103.9  710.407
103.8  579.204
103.7  452.309
103.6  396.282
103.5  294.711
103.4  260.813
103.3  225.529
103.2  189.919
103.1  186.484
103  165.729
102.9  166.086
102.8  153.317
102.7  140.816
102.6  121.834
102.5  118.642
102.4  114.665
102.3  103.388
102.2  100.798
102.1  91.82688
102  110.39
101.9  90.5995
101.8  91.0657
101.7  116.201
101.6  95.5356
101.5  105.2861
101.4  110.901
101.3  108.181
101.2  129.067
101.1  137.171
101  159.8061
100.9  175.581
100.8  245.875
100.7  330.943
100.6  389.438
100.5  403.424
100.4  424.371
100.3  440.3
100.2  445.269
100.1  525.6128
100  566.137
99.9  659.943
99.8  560.919
99.7  452.69
99.6  301.375
99.5  174.377
99.4  115.178
99.3  88.5974
99.2  77.9277
99.1  76.1851
99  75.6857
98.9  64.8442
98.8  71.8482
98.7  76.5593
98.6  76.6297
98.5  72.0377
98.4  74.3748
98.3  78.148
98.2  53.8139
98.1  62.8544
98  61.327
97.9  68.64581
97.8  72.4131
97.7  63.3105
97.6  65.83
97.5  59.4121
97.4  61.4449
97.3  63.2258
97.2  57.6346
97.1  66.3619
97  54.4063
96.9  62.1037
96.8  64.9553
96.7  64.63533
96.6  64.0616
96.5  75.5014
96.4  49.2994
96.3  60.0763
96.2  62.1759
96.1  66.84895
96  78.1907
95.9  65.23062
95.8  59.6402
95.7  63.9651
95.6  68.326
95.5  55.1164
95.4  60.2035
95.3  59.49
95.2  63.18346
95.1  62.8508
95  62.7689

# Group:             Spectrum Group 55
#
# Region:            C1s
# Acquisition Date:  10/25/19 19:38:18 UTC
# Analysis Method:   XPS
# Analyzer:          Phoibos
# Analyzer Lens:     MediumArea:1.5kV
# Analyzer Slit:     5:7x20\B:open
# Scan Mode:         FixedAnalyzerTransmission
# Curves/Scan:       1
# Values/Curve:      71
# Dwell Time:        0.1
# Excitation Energy: 1486.71
# Binding Energy:    289
# Pass Energy:       10
# Bias Voltage:      90
# Detector Voltage:  1900
# Eff. Workfunction: 4.395
# Source:            Focus
# Comment:
#
# Cycle: 0
# Number of Scans: 12
#
# Cycle: 0, Curve: 0
# Acquisition Date: 10/25/19 19:38:18 UTC
#
# ColumnLabels: energy counts/s
#
289  448.661
288.9  441.562
288.8  448.126
288.7  448.254
288.6  414.249
288.5  420.565
288.4  439.539
288.3  417.13
288.2  445.355
288.1  450.42
288  438.018
287.9  435.3308
287.8  444.39
287.7  459.054
287.6  466.634
287.5  488.444
287.4  500.856
287.3  507.614
287.2  492.551
287.1  530.433
287  566.05
286.9  577.911
286.8  640.686
286.7  684.525
286.6  715.313
286.5  741.131
286.4  780.01
286.3  790.598
286.2  797.7758
286.1  785.02
286  810.218
285.9  754.762
285.8  777.284
285.7  738.102
285.6  664.46
285.5  619.692
285.4  603.894
285.3  601.834
285.2  521.523
285.1  521.985
285  509.235
284.9  484.541
284.8  455.0161
284.7  463.849
284.6  419.9802
284.5  404.523
284.4  447.369
284.3  419.854
284.2  434.758
284.1  407.979
284  420.8654
283.9  424.408
283.8  394.098
283.7  402.356
283.6  418.6153
283.5  439.741
283.4  403.104
283.3  414.899
283.2  406.2547
283.1  410.729
283  410.443
282.9  433.559
282.8  426.805
282.7  408.095
282.6  410.008
282.5  410.483
282.4  401.036
282.3  401.8568
282.2  427.114
282.1  401.03
282  402.268

# Region:            O1s
# Acquisition Date:  10/25/19 19:49:46 UTC
# Analysis Method:   XPS
# Analyzer:          Phoibos
# Analyzer Lens:     MediumArea:1.5kV
# Analyzer Slit:     5:7x20\B:open
# Scan Mode:         FixedAnalyzerTransmission
# Curves/Scan:       1
# Values/Curve:      491
# Dwell Time:        0.1
# Excitation Energy: 1486.71
# Binding Energy:    570
# Pass Energy:       10
# Bias Voltage:      90
# Detector Voltage:  1900
# Eff. Workfunction: 4.395
# Source:            Focus
# Comment:
#
# Cycle: 0
# Number of Scans: 12
#
# Cycle: 0, Curve: 0
# Acquisition Date: 10/25/19 19:49:46 UTC
#
# ColumnLabels: energy counts/s
#
570  969.377
569.9  1016.64
569.8  1003.5
569.7  999.289
569.6  1024.96
569.5  949.932
569.4  986.184
569.3  939.258
569.2  995.874
569.1  1002.775
569  1036.72
568.9  1026.57
568.8  1018.58
568.7  1014.66
568.6  1007.79
568.5  993.126
568.4  993.023
568.3  969.198
568.2  981.236
568.1  1009.37
568  1010.68
567.9  983.161
567.8  998.214
567.7  985.778
567.6  992.893
567.5  1018.929
567.4  1009.1
567.3  970.771
567.2  988.177
567.1  986.083
567  1009.7
566.9  1017.86
566.8  1035.09
566.7  1026.924
566.6  1044.24
566.5  1029.068
566.4  1046.45
566.3  1062.64
566.2  1025.79
566.1  1054.58
566  1071.608
565.9  1054.94
565.8  1083.62
565.7  1023.2
565.6  1060.369
565.5  1080.628
565.4  1034.44
565.3  1026.92
565.2  1043.19
565.1  1119.2
565  1078.41
564.9  1077.07
564.8  1069.4
564.7  1104.13
564.6  1110.05
564.5  1073.88
564.4  1044.81
564.3  1084.58
564.2  1106.23
564.1  1103.19
564  1095.64
563.9  1141.77
563.8  1119.854
563.7  1133.78
563.6  1090.18
563.5  1079.32
563.4  1156.76
563.3  1175.42
563.2  1133.53
563.1  1184.326
563  1158.97
562.9  1153.47
562.8  1138.61
562.7  1200.43
562.6  1186.19
562.5  1175.65
562.4  1186.05
562.3  1159.9
562.2  1163.89
562.1  1187.86
562  1223.806
561.9  1204.88
561.8  1245.94
561.7  1204.82
561.6  1230.59
561.5  1225.32
561.4  1240.823
561.3  1195.27
561.2  1193.28
561.1  1201.06
561  1233.67
560.9  1278.16
560.8  1243.21
560.7  1224.58
560.6  1259.25
560.5  1258.1
560.4  1251.75
560.3  1257.16
560.2  1276.12
560.1  1263.04
560  1225.91
559.9  1313.35
559.8  1298.99
559.7  1273.61
559.6  1276.43
559.5  1252.18
559.4  1239.76
559.3  1257.88
559.2  1292.49
559.1  1275.52
559  1240.79
558.9  1256.67
558.8  1233.06
558.7  1302.13
558.6  1295.92
558.5  1272.64
558.4  1260.13
558.3  1312.93
558.2  1330.02
558.1  1311.18
558  1296.045
557.9  1304.85
557.8  1338.74
557.7  1356.397
557.6  1329.98
557.5  1340.75
557.4  1368.55
557.3  1392.36
557.2  1339.6
557.1  1373.12
557  1373.14
556.9  1394.28
556.8  1386.03
556.7  1388.81
556.6  1389.229
556.5  1416.66
556.4  1409.58
556.3  1347.73
556.2  1378.66
556.1  1422.77
556  1397.08
555.9  1336.81
555.8  1318.63
555.7  1337.05
555.6  1350.91
555.5  1253.86
555.4  1266.82
555.3  1302.77
555.2  1288.19
555.1  1213.8
555  1268.11
554.9  1220.96
554.8  1232.12
554.7  1193.43
554.6  1197.14
554.5  1229.48
554.4  1204.6
554.3  1173.14
554.2  1208.22
554.1  1211.84
554  1183.51
553.9  1140.82
553.8  1183.32
553.7  1088.91
553.6  1111.33
553.5  1089.08
553.4  1096.21
553.3  1096.08
553.2  1087.86
553.1  1083
553  1016.24
552.9  1040.35
552.8  1077.6
552.7  1019.79
552.6  1021.69
552.5  1003.2
552.4  1031.63
552.3  1037.66
552.2  1047.16
552.1  989.117
552  985.991
551.9  964.044
551.8  1007.41
551.7  987.751
551.6  989.182
551.5  1006.5
551.4  956.728
551.3  970.541
551.2  978.544
551.1  942.18
551  997.146
550.9  986.048
550.8  967.247
550.7  909.9062
550.6  900.71
550.5  931.243
550.4  923.139
550.3  944.054
550.2  959.069
550.1  955.016
550  960.755
549.9  972.846
549.8  920.779
549.7  956.653
549.6  966.757
549.5  936.67
549.4  911.875
549.3  941.144
549.2  945.388
549.1  963.222
549  926.8
548.9  890.039
548.8  912.0784
548.7  909.07
548.6  930.703
548.5  948.468
548.4  907.65
548.3  831.173
548.2  871.138
548.1  857.458
548  842.4235
547.9  860.96
547.8  870.3375
547.7  854.548
547.6  851.333
547.5  863.304
547.4  831.767
547.3  820.288
547.2  847.2082
547.1  848.93
547  819.728
546.9  835.977
546.8  860.311
546.7  793.873
546.6  801.191
546.5  777.037
546.4  732.68
546.3  763.1716
546.2  770.484
546.1  765.927
546  771.806
545.9  776.448
545.8  773.338
545.7  772.425
545.6  756.89
545.5  724.25
545.4  723.5969
545.3  706.99
545.2  689.861
545.1  670.388
545  694.876
544.9  657.074
544.8  649.2882
544.7  578.182
544.6  575.1184
544.5  605.779
544.4  588.238
544.3  536.184
544.2  553.502
544.1  559.265
544  523.756
543.9  523.645
543.8  520.528
543.7  494.477
543.6  515.377
543.5  509.571
543.4  500.151
543.3  467.535
543.2  477.932
543.1  445.41
543  451.54
542.9  484.178
542.8  459.047
542.7  458.614
542.6  464.343
542.5  463.01
542.4  444.571
542.3  433.388
542.2  417.565
542.1  417.492
542  428.421
541.9  438.897
541.8  440.957
541.7  423.198
541.6  408.104
541.5  393.241
541.4  396.383
541.3  398.962
541.2  398.5736
541.1  409.842
541  431.795
540.9  415.792
540.8  428.251
540.7  452.388
540.6  405.127
540.5  455.569
540.4  438.195
540.3  432.288
540.2  427.396
540.1  422.821
540  438.4517
539.9  420.093
539.8  417.348
539.7  406.287
539.6  424.601
539.5  413.959
539.4  391.982
539.3  411.365
539.2  425.8145
539.1  427.291
539  417.706
538.9  419.2022
538.8  413.1
538.7  429.24
538.6  465.531
538.5  442.139
538.4  442.527
538.3  428.011
538.2  396.614
538.1  438.602
538  457.333
537.9  460.461
537.8  428.846
537.7  468.083
537.6  455.743
537.5  449.771
537.4  462.581
537.3  461.985
537.2  474.247
537.1  472.4353
537  469.63
536.9  496.715
536.8  523.809
536.7  557.042
536.6  581.698
536.5  618.753
536.4  617.175
536.3  704.443
536.2  731.906
536.1  855.1151
536  969.446
535.9  1133.89
535.8  1332.57
535.7  1623.37
535.6  1971.89
535.5  2425.32
535.4  3022.82
535.3  3689.64
535.2  4645.71
535.1  5505
535  6555.266
534.9  7842.32
534.8  8928.92
534.7  10105.229
534.6  11035.55
534.5  11695.579
534.4  12173.969
534.3  12324.577
534.2  12017.274
534.1  11418.163
534  10417.279
533.9  9358.72
533.8  8240.1
533.7  6999.61
533.6  5682.3
533.5  4556.471
533.4  3574.22
533.3  2879.56
533.2  2336.94
533.1  1833.93
533  1497.19
532.9  1209.889
532.8  1032.33
532.7  923.387
532.6  830.872
532.5  780.799
532.4  731.9161
532.3  696.433
532.2  652.321
532.1  587.917
532  582.284
531.9  573.216
531.8  552.876
531.7  533.807
531.6  502.3397
531.5  504.969
531.4  483.606
531.3  489.648
531.2  496.147
531.1  456.854
531  449.925
530.9  442.627
530.8  419.1181
530.7  418.165
530.6  431.318
530.5  404.266
530.4  392.245
530.3  455.369
530.2  440.5884
530.1  403.68
530  420.385
529.9  403.608
529.8  427.603
529.7  431.8254
529.6  425.858
529.5  412.022
529.4  386.118
529.3  393.54
529.2  377.769
529.1  394.151
529  401.159
528.9  376.159
528.8  383.665
528.7  396.696
528.6  372.431
528.5  374.212
528.4  387.722
528.3  380.057
528.2  377.212
528.1  400.4524
528  408.544
527.9  391.883
527.8  375.263
527.7  380.677
527.6  380.848
527.5  388.353
527.4  391.216
527.3  342.7196
527.2  386.8094
527.1  378.493
527  365.277
526.9  395.905
526.8  391.3093
526.7  392.485
526.6  367.9963
526.5  373.2031
526.4  377.897
526.3  364.754
526.2  367.119
526.1  379.573
526  366.155
525.9  373.594
525.8  385.702
525.7  412.78
525.6  404.335
525.5  366.723
525.4  379.655
525.3  396.221
525.2  373.595
525.1  375.227
525  392.564
524.9  380.659
524.8  369.147
524.7  359.247
524.6  377.12
524.5  391.42
524.4  353.548
524.3  387.009
524.2  385.735
524.1  407.508
524  368.1044
523.9  383.547
523.8  365.244
523.7  386.13
523.6  362.232
523.5  366.091
523.4  355.214
523.3  380.633
523.2  396.633
523.1  375.186
523  353.669
522.9  359.354
522.8  375.384
522.7  362.795
522.6  350.28
522.5  390.755
522.4  389.981
522.3  365.455
522.2  361.065
522.1  357.288
522  356.668
521.9  381.298
521.8  381.387
521.7  367.32
521.6  350.143
521.5  353.741
521.4  367.697
521.3  371.735
521.2  385.79
521.1  369.944
521  382.413

# Region:            Si2p
# Acquisition Date:  10/25/19 19:53:36 UTC
# Analysis Method:   XPS
# Analyzer:          Phoibos
# Analyzer Lens:     MediumArea:1.5kV
# Analyzer Slit:     5:7x20\B:open
# Scan Mode:         FixedAnalyzerTransmission
# Curves/Scan:       1
# Values/Curve:      151
# Dwell Time:        0.1
# Excitation Energy: 1486.71
# Binding Energy:    110
# Pass Energy:       10
# Bias Voltage:      90
# Detector Voltage:  1900
# Eff. Workfunction: 4.395
# Source:            Focus
# Comment:
#
# Cycle: 0
# Number of Scans: 12
#
# Cycle: 0, Curve: 0
# Acquisition Date: 10/25/19 19:53:36 UTC
#
# ColumnLabels: energy counts/s
#
110  78.48925
109.9  70.8577
109.8  58.305
109.7  78.7499
109.6  70.3195
109.5  76.6218
109.4  70.9672
109.3  89.2787
109.2  80.1305
109.1  66.4401
109  61.4052
108.9  79.14505
108.8  76.1308
108.7  75.8255
108.6  68.7875
108.5  81.2129
108.4  73.9668
108.3  71.80234
108.2  78.3126
108.1  68.1291
108  73.20728
107.9  66.4506
107.8  70.7282
107.7  74.9579
107.6  77.9812
107.5  89.095
107.4  91.8634
107.3  78.4776
107.2  81.9944
107.1  101.332
107  92.2425
106.9  103.761
106.8  127.826
106.7  171.752
106.6  189.595
106.5  233.49
106.4  280.164
106.3  380.497
106.2  426.585
106.1  559.845
106  669.816
105.9  797.493
105.8  1009.84
105.7  1194.97
105.6  1387.784
105.5  1608.53
105.4  1721.4
105.3  1935.04
105.2  2064.58
105.1  2140.35
105  2154.67
104.9  2202.14
104.8  2029.54
104.7  2001.95
104.6  1913.32
104.5  1676.48
104.4  1500.06
104.3  1249.34
104.2  1068.07
104.1  851.9438
104  677.012
103.9  524.044
103.8  445.932
103.7  348.459
103.6  305.016
103.5  236.889
103.4  216.377
103.3  174.333
103.2  164.85
103.1  146.717
103  138.71
102.9  123.112
102.8  105.154
102.7  110.966
102.6  101.5223
102.5  96.2512
102.4  90.2665
102.3  83.4016
102.2  82.69966
102.1  75.1529
102  81.5073
101.9  66.87604
101.8  73.6794
101.7  82.8927
101.6  76.7793
101.5  89.6022
101.4  73.7994
101.3  75.1093
101.2  94.5256
101.1  95.2176
101  98.8905
100.9  113.18
100.8  140.732
100.7  198.662
100.6  224.75
100.5  262.6063
100.4  257.158
100.3  230.017
100.2  255.714
100.1  276.6006
100  336.336
99.9  334.048
99.8  283.255
99.7  234.377
99.6  165.393
99.5  104.5854
99.4  59.9379
99.3  53.24484
99.2  68.7711
99.1  61.7196
99  66.9371
98.9  54.3459
98.8  67.8888
98.7  57.3723
98.6  51.5002
98.5  53.22946
98.4  50.7915
98.3  56.5952
98.2  65.2355
98.1  56.50285
98  63.8609
97.9  61.4989
97.8  49.4994
97.7  57.9963
97.6  55.1051
97.5  58.62565
97.4  64.1866
97.3  61.9442
97.2  53.2578
97.1  56.4257
97  53.08939
96.9  54.6706
96.8  54.0682
96.7  66.8419
96.6  65.0505
96.5  67.35
96.4  56.634
96.3  54.5875
96.2  61.4224
96.1  59.966
96  61.5301
95.9  53.85092
95.8  62.4483
95.7  61.5392
95.6  57.5105
95.5  57.8682
95.4  53.7051
95.3  51.5765
95.2  51.1631
95.1  55.4486
95  60.1008