File: Silicio2p/OxidoInfinito/OxidoInfinito.xy
# Created by:        SpecsLab Prodigy, Version 4.50.2-r79252
#
# XY-Serializer Export Settings:
#   Comment Prefix:           #
#   Output meta data:         yes
#   Energy Axis:              Binding Energy
#   Count Rate:               Counts per Second
#   Separate Scan Data:       no
#   Separate Channel Data:    no
#   External Channel Data:    yes
#   Transmission Function:    no
#   ErrorBar:                 no
#   Operation Results:        yes
#   Time Zone Format:         UTC
#
# Group:             Spectrum Group 0
#
# Region:            Survey
# Acquisition Date:  10/30/19 22:56:45 UTC
# Analysis Method:   XPS
# Analyzer:          Phoibos
# Analyzer Lens:     MediumArea:1.5kV
# Analyzer Slit:     5:7x20\B:open
# Scan Mode:         FixedAnalyzerTransmission
# Curves/Scan:       1
# Values/Curve:      1201
# Dwell Time:        0.1
# Excitation Energy: 1486.71
# Binding Energy:    1200
# Pass Energy:       50
# Bias Voltage:      90
# Detector Voltage:  1900
# Eff. Workfunction: 4.395
# Source:            Focus
# Comment:
#
# Cycle: 0
# Number of Scans: 1
#
# Cycle: 0, Curve: 0
# Acquisition Date: 10/30/19 22:56:45 UTC
#
# ColumnLabels: energy counts/s
#
1200  22541.279
1199  22776.537
1198  23554.305
1197  22410.386
1196  22508.064
1195  22816.59
1194  22850.305
1193  22811.974
1192  22520.404
1191  22718.053
1190  22520.996
1189  22974.594
1188  23015.396
1187  22597.062
1186  23274.864
1185  23021.932
1184  22429.153
1183  22651.612
1182  22837.958
1181  23491.201
1180  22943.074
1179  22541.407
1178  22588.379
1177  22869.353
1176  23490.17
1175  23028.122
1174  23181.834
1173  22655.545
1172  22965.733
1171  23069.963
1170  22720.378
1169  22692.164
1168  22670.17
1167  23651.697
1166  23408.078
1165  23353.583
1164  23676.026
1163  22918.676
1162  22663.246
1161  22956.238
1160  22927.817
1159  23040.537
1158  23217.333
1157  23802.736
1156  23590.111
1155  23704.687
1154  23454.96
1153  23225.986
1152  23654.292
1151  23479.234
1150  24053.78
1149  23431.596
1148  23075.996
1147  23567.334
1146  24879.304
1145  24607.042
1144  23716.865
1143  23792.077
1142  24167.316
1141  23471.043
1140  23639.801
1139  23108.494
1138  23935.539
1137  24221.633
1136  23326.515
1135  24159.417
1134  23996.999
1133  23580.262
1132  23804.719
1131  23161.602
1130  23875.876
1129  23989.388
1128  24230.716
1127  23801.682
1126  23979.642
1125  24190.57
1124  23658.668
1123  24318.932
1122  24292.079
1121  23488.047
1120  23756.424
1119  23201.36
1118  24317.185
1117  24315.885
1116  24678.743
1115  23983.338
1114  23551.325
1113  24177.36
1112  23689.262
1111  24660.391
1110  24013.388
1109  23703.743
1108  24112.943
1107  23823.117
1106  23666.046
1105  24754.951
1104  24436.357
1103  24564.413
1102  24348.893
1101  24233.618
1100  23987.366
1099  25209.96
1098  25119.774
1097  24080.712
1096  24899.298
1095  24752.826
1094  24853.649
1093  24807.477
1092  24710.36
1091  24638.51
1090  25658.605
1089  25119.362
1088  24778.395
1087  24163.565
1086  24786.908
1085  25042.994
1084  24471.618
1083  24349.868
1082  23800.427
1081  24991.462
1080  24831.644
1079  24329.262
1078  24896.636
1077  24454.39
1076  23604.541
1075  24869.337
1074  24813.393
1073  26431.056
1072  26675.078
1071  25345.773
1070  24873.91
1069  25566.979
1068  25700.705
1067  24208.124
1066  25439.239
1065  25085.658
1064  24806.29
1063  24672.976
1062  24316.328
1061  24797.689
1060  25253.933
1059  25327.101
1058  25136.368
1057  24496.232
1056  23896.341
1055  23656.073
1054  24622.586
1053  25035.037
1052  24692.952
1051  24333.021
1050  24517.688
1049  24881.27
1048  25865.658
1047  25589.569
1046  26033.186
1045  26548.501
1044  25337.199
1043  25877.974
1042  25694.766
1041  25850.582
1040  25450.994
1039  25164.761
1038  24471.715
1037  24269.655
1036  25302.267
1035  25213.625
1034  25143.55
1033  25079.766
1032  24817.392
1031  24893.708
1030  25439.419
1029  25161.175
1028  25428.362
1027  25352.205
1026  25454.513
1025  25304.64
1024  25738.328
1023  25669.526
1022  25901.395
1021  24284.175
1020  24854.685
1019  25545.306
1018  25552.606
1017  25580.093
1016  25397.015
1015  25102.471
1014  24956.059
1013  24096.571
1012  23578.698
1011  23771.656
1010  24482.103
1009  24491.863
1008  23438.588
1007  24588.769
1006  24692.793
1005  25206.365
1004  26148.099
1003  25623.506
1002  26475.42
1001  27080.507
1000  25522.957
999  24074.583
998  23637.01
997  23790.88
996  23772.582
995  22704.456
994  22245.912
993  21650.431
992  21219.328
991  20537.246
990  20646.263
989  20795.323
988  20573.97
987  20284.123
986  21233.292
985  22119.396
984  23504.052
983  24842.998
982  25438.545
981  27327.283
980  27939.03
979  26320.211
978  23502.199
977  21585.252
976  20533.636
975  20583.059
974  19278.958
973  18710.659
972  17406.491
971  17144.984
970  15730.541
969  15611.803
968  15696.325
967  15814.11
966  14991.286
965  14195.355
964  14667.071
963  14541.818
962  14620.553
961  14814.418
960  15099.157
959  14997.553
958  14527.385
957  15082.121
956  15077.9
955  14338.474
954  14864.203
953  14875.486
952  15252.122
951  14942.474
950  15127.655
949  15462.492
948  14748.121
947  15113.402
946  14877.197
945  15722.284
944  15410.19
943  14896.835
942  14709.244
941  15226.47
940  15260.116
939  15439.769
938  15295.193
937  15973.293
936  15148.513
935  14870.432
934  14904.19
933  15583.669
932  15913.531
931  15524.53
930  16134.442
929  15668.79
928  15667.735
927  16286.785
926  15915.733
925  16156.887
924  15713.525
923  15629.352
922  16032.231
921  16853.769
920  16234.606
919  15642.624
918  16014.346
917  16479.891
916  16528.571
915  15743.396
914  16310.801
913  16217.51
912  15986.325
911  16488.163
910  16163.857
909  16456.452
908  16157.508
907  16214.418
906  17118.097
905  16554.741
904  15555.507
903  15917.122
902  16742.148
901  16081.362
900  16377.926
899  16066.007
898  15871.859
897  16888.186
896  16996.659
895  16613.49
894  16861.896
893  16563.383
892  16434.591
891  16948.1
890  17021.89
889  16609.84
888  16218.213
887  16990.362
886  17283.934
885  17241.542
884  17373.091
883  17104.899
882  17929.9
881  17430.266
880  17771.361
879  17336.945
878  17962.772
877  17353.817
876  17398.55
875  17567.45
874  17397.392
873  17154.458
872  18018.717
871  18130.357
870  17834.002
869  17652.087
868  17378.458
867  17474.548
866  17847.162
865  18005.724
864  18699.684
863  18587.393
862  18036.572
861  18181.928
860  17644.162
859  18504.897
858  18345.093
857  18401.716
856  19073.973
855  18753.794
854  18093.959
853  18170.198
852  18869.466
851  18645.863
850  18500.637
849  19132.847
848  19279.64
847  19493.202
846  18675.71
845  18995.149
844  18631.542
843  18897.607
842  18822.591
841  19491.727
840  19203.495
839  18617.587
838  19341.935
837  18893.897
836  19260.685
835  19140.869
834  19451.199
833  19441.59
832  19472.614
831  19532.117
830  19900.71
829  19632.169
828  19620.881
827  19984.055
826  20067.867
825  19778.655
824  19966.205
823  20004.858
822  20564.924
821  19434.863
820  20054.641
819  19605.947
818  20380.104
817  20382.771
816  19874.156
815  19958.657
814  20510.21
813  19671.865
812  20313.228
811  20639.333
810  20734.08
809  20958.476
808  20831.099
807  20919.609
806  20673.709
805  20732.014
804  20632.761
803  21095.014
802  21616.295
801  21176.263
800  20960.509
799  21432.688
798  20429.965
797  21236.706
796  21813.026
795  21485.66
794  21670.091
793  21445.034
792  21772.81
791  21074.273
790  21486.694
789  21047.539
788  21144.872
787  22003.909
786  21245.626
785  21000.932
784  21260.365
783  22344.487
782  22901.442
781  22815.954
780  21915.796
779  22723.214
778  22603.934
777  22074.163
776  21797.222
775  22165.209
774  22148.369
773  21799.375
772  21840.157
771  22024.644
770  22329.291
769  23004.018
768  22574.74
767  22601.362
766  22675.343
765  22603.73
764  21966.685
763  22121.833
762  23332.965
761  23311.909
760  22728.121
759  22673.982
758  22636.453
757  23378.963
756  22949.612
755  23003.571
754  23640.384
753  23061.847
752  22894.235
751  23571.774
750  22252.323
749  23615.071
748  23783.902
747  23450.096
746  23802.035
745  23922.562
744  23530.842
743  23913.085
742  23977.132
741  24005.382
740  23990.176
739  24158.637
738  23914.569
737  23903.538
736  23861.886
735  23589.254
734  23733.239
733  24905.565
732  24855.979
731  24891.581
730  25332.591
729  24941.474
728  25084.375
727  23986.501
726  24622.341
725  24885.729
724  24854.845
723  24628.465
722  24828.608
721  24934.561
720  24544.648
719  24959.407
718  24564.446
717  25308.575
716  25088.209
715  25225.764
714  26034.143
713  25282.797
712  24886.182
711  25582.474
710  25474.097
709  24763.15
708  25222.657
707  25415.382
706  25607.399
705  25208.516
704  26003.853
703  26181.857
702  26228.247
701  25704.32
700  25402.648
699  25556.577
698  24830.998
697  25626.936
696  25716.939
695  25531.695
694  26240.235
693  27100.55
692  26228.197
691  27294.971
690  26936.812
689  25859.122
688  26545.72
687  26976.194
686  25745.136
685  26723.873
684  26183.064
683  26688.281
682  26904.333
681  26363.581
680  26813.273
679  26520.333
678  27847.459
677  27046.796
676  26724.1
675  27358.323
674  27319.105
673  27237.572
672  26497.044
671  26754.399
670  27605.314
669  27067.924
668  27888.625
667  26976.673
666  27188.423
665  27694.832
664  27558.85
663  28035.615
662  27860.829
661  27979.358
660  27125.095
659  27925.24
658  28400.712
657  29266.684
656  27966.924
655  28072.461
654  28275.325
653  28440.833
652  29039.813
651  28312.508
650  29105.021
649  28321.202
648  28064.039
647  28719.046
646  29033.934
645  28886.6
644  29035.525
643  29479.462
642  30062.453
641  29192.881
640  29264.983
639  28504.513
638  28506.775
637  28184.631
636  29077.684
635  30077.195
634  29957.832
633  29430.196
632  29829.679
631  29251.661
630  29275.882
629  28836.791
628  28787.454
627  29842.705
626  29043.011
625  29707.874
624  29864.837
623  29954.401
622  30313.985
621  29752.851
620  29556.932
619  30163.039
618  29982.833
617  29574.66
616  30134.135
615  29598.242
614  30321.754
613  30658.258
612  29972.967
611  30344.847
610  30090.312
609  30205.352
608  29771.033
607  30230.94
606  29540.846
605  30993.053
604  30506.581
603  30467.176
602  30420.203
601  30871.685
600  30532.949
599  29736.152
598  30149.511
597  30432.597
596  30733.902
595  30182.923
594  31005.036
593  30911.646
592  30169.897
591  30175.782
590  30479.22
589  30257.163
588  30522.368
587  30891.442
586  31203.665
585  31145.468
584  30879.653
583  30669.303
582  30063.954
581  30297.068
580  30320.536
579  30864.524
578  29868.513
577  30385.6
576  30861.226
575  31053.698
574  31033.799
573  30833.536
572  30472.891
571  30067.623
570  28696.742
569  27977.645
568  27665.434
567  27701.828
566  28837.285
565  29516.028
564  29054.057
563  28285.026
562  30788.52
561  31354.587
560  31501.293
559  32412.455
558  33769.047
557  34273.463
556  35327.568
555  34913.198
554  33893
553  31924.652
552  30460.402
551  28774.848
550  27684.395
549  27123.763
548  25946.796
547  23839.014
546  22807.017
545  20328.647
544  17224.941
543  14808.037
542  13537.357
541  12229.899
540  11370.355
539  11326.56
538  11676.824
537  13101.342
536  17280.027
535  44391.894
534  127962.59
533  134639.25
532  49590.126
531  17580.524
530  12235.435
529  11727.163
528  11059.333
527  10926.189
526  10717.393
525  10960.51
524  10381.664
523  10330.081
522  10247.875
521  10466.375
520  10417.815
519  10133.106
518  10425.863
517  10576.888
516  10261.598
515  10496.696
514  10623.985
513  10742.158
512  10542.666
511  10419.995
510  10973.053
509  10653.409
508  10386.196
507  10401.184
506  10206.475
505  10424.494
504  10529.203
503  10258.588
502  10778.248
501  10508.533
500  10904.992
499  11307.704
498  11585.767
497  11774.461
496  10799.753
495  10405.019
494  10670.518
493  10364.817
492  10319.515
491  10207.795
490  9973.15
489  10333.342
488  10539.268
487  10780.4
486  10520.712
485  10747.128
484  10729.159
483  10772.638
482  10714.434
481  10463.868
480  10006.877
479  10604.35
478  10819.475
477  10398.432
476  10635.471
475  10466.992
474  10429.56
473  10470.006
472  10419.135
471  11167.038
470  10021.474
469  10841.678
468  10834.254
467  10728.369
466  10319.491
465  10730.765
464  11249.414
463  10890.165
462  11031.198
461  11005.337
460  11086.796
459  10813.229
458  10656.17
457  11119.731
456  11018.501
455  11045.171
454  10894.25
453  10784.383
452  11016.756
451  10851.121
450  10780.12
449  10771.848
448  11043.339
447  10983.979
446  11206.196
445  11110.093
444  10450.695
443  10900.948
442  10745.273
441  10904.876
440  11176.436
439  11410.692
438  10987.491
437  11156.013
436  11122.61
435  11334.174
434  11199.765
433  10948.159
432  10783.343
431  11426.048
430  11059.613
429  10974.699
428  11335.343
427  10408.216
426  11350.484
425  11294.312
424  10899.252
423  11026.666
422  11363.343
421  11146.702
420  10921.955
419  11066.687
418  11097.007
417  10985.92
416  11363.751
415  11314.312
414  11588.3
413  11280.83
412  11881.953
411  10950.793
410  10921.775
409  11501.74
408  11526.332
407  11608.948
406  10837.617
405  11230.676
404  11585.719
403  11488.711
402  11915.772
401  12185.462
400  11602.37
399  10854.635
398  10964.283
397  11238.39
396  10942.711
395  11380.638
394  11666.623
393  11366.572
392  10704.749
391  11022.052
390  11066.682
389  11307.58
388  10955.537
387  11686.1
386  11806.916
385  11096.083
384  11215.833
383  11748.656
382  11578.587
381  11246.309
380  11825.365
379  11083.168
378  12192.312
377  11363.374
376  11593.281
375  11994.438
374  11509.597
373  11636.744
372  11162.106
371  11234.049
370  11611.299
369  11200.654
368  11611.683
367  11691.578
366  11843.761
365  11768.109
364  11986.503
363  11941.958
362  11772.142
361  11997.9
360  12102.325
359  11975.221
358  12043.88
357  12017.889
356  12257.178
355  12308.799
354  11643.29
353  12569.223
352  13122.434
351  12748.276
350  12499.155
349  13345.633
348  13708.186
347  13585.584
346  12776.759
345  11954.941
344  12348.314
343  12217.44
342  12243.18
341  12305.134
340  12814.013
339  12891.32
338  12601.893
337  12383.367
336  12774.856
335  12490.272
334  12606.177
333  12780.552
332  12095.565
331  13171.489
330  13483.789
329  13151.844
328  12932.644
327  12871.621
326  13019.612
325  13680.083
324  13087.696
323  12915.928
322  13153.857
321  12960.259
320  12813.23
319  13480.632
318  13475.252
317  13422.386
316  13573.367
315  13270.833
314  13656.894
313  13953.76
312  14072.026
311  14254.657
310  13481.604
309  14022.956
308  14410.591
307  14361.463
306  14714.125
305  14045.457
304  14636.21
303  14201.784
302  14115.517
301  13638.568
300  13142.757
299  12578.203
298  12365.043
297  12548.727
296  12622.316
295  11934.333
294  11754.282
293  11386.677
292  10974.365
291  11912.334
290  13206.92
289  13958.575
288  16348.685
287  24453.8
286  49605.632
285  45690.435
284  18289.492
283  11403.753
282  10793.711
281  10400.146
280  10617.625
279  10254.867
278  11168.869
277  10900.245
276  11239.111
275  10442.304
274  10165.175
273  10673.546
272  10374.927
271  10751.616
270  10838.647
269  10441.296
268  10637.637
267  11001.561
266  10388.413
265  10123.301
264  10642.63
263  10178.479
262  11015.838
261  10443.53
260  10389.602
259  10894.464
258  10852.027
257  10502.422
256  10380.238
255  10825.798
254  10746.755
253  10284.031
252  10532.118
251  10330.101
250  10557.127
249  10590.823
248  10431.385
247  10712.816
246  10660.542
245  10635.003
244  10373.507
243  10203.018
242  9663.729
241  10185.911
240  10754.307
239  10239.018
238  10352.899
237  10869.379
236  10639.647
235  10622.388
234  10580.712
233  11462.831
232  10628.102
231  10850.834
230  10890.31
229  11385.892
228  10986.325
227  10485.996
226  10446.595
225  11085.239
224  11148.586
223  11018.791
222  10593.751
221  11014.382
220  10889.821
219  10719.042
218  11060.41
217  10853.524
216  10379.134
215  10413.383
214  10944.791
213  10788.284
212  11158.371
211  10968.818
210  10707.24
209  10176.225
208  10393.18
207  10850.901
206  10656.2
205  11079.232
204  10857.468
203  10851.138
202  10201.625
201  11115.909
200  11551.476
199  11804.994
198  10788.908
197  11139.404
196  11101.778
195  11157.09
194  11271.321
193  11136.892
192  10488.178
191  10619.043
190  10452.438
189  10772.805
188  10023.302
187  10259.836
186  10158.846
185  10280.798
184  10770.173
183  11211.695
182  11150.304
181  12086.338
180  11991.994
179  11740.979
178  12452.513
177  12139.177
176  11764.685
175  11540.7
174  11868.858
173  11498.873
172  11181.169
171  10901.726
170  11173.06
169  10598.574
168  9830.5
167  9261.961
166  9060.87
165  8170.12
164  7369.76
163  7312
162  7452.88
161  7427.83
160  7382.23
159  7968.31
158  9691.22
157  16066.967
156  27253.995
155  33056.726
154  25841.919
153  16335.6
152  10158.244
151  8342.05
150  7457.99
149  7250.77
148  7411.68
147  7076.819
146  6686.96
145  6582.97
144  6699.311
143  6831.25
142  6562.49
141  6380.49
140  6284.79
139  5967.78
138  5812
137  6332.65
136  5848.99
135  6153.53
134  6110.2
133  6541.08
132  6195.89
131  6802.28
130  6363.83
129  6869.95
128  6941.25
127  7430.97
126  7208.82
125  7222.61
124  7527.69
123  7141.23
122  6636
121  6198.46
120  5831.33
119  5779.78
118  5400.96
117  4732.17
116  4392.04
115  3681.59
114  3197.46
113  2713.1
112  2114.59
111  2030.13
110  1948.68
109  2377.45
108  2434.33
107  3029.89
106  7813.28
105  25169.072
104  35448.071
103  20863.604
102  8504.27
101  2811.2
100  1980.5
99  2067.75
98  2075.63
97  1933.62
96  1803.54
95  2072.78
94  1924.22
93  1924.12
92  1743.17
91  2250.65
90  2190.07
89  1929.95
88  1781.58
87  1740.66
86  1929.87
85  1871.86
84  1802.95
83  2006.76
82  2148
81  2179.6
80  2218.24
79  2270.2
78  2010.14
77  1992.13
76  2188.75
75  2243.14
74  2238.28
73  2088.86
72  2049.72
71  2223.18
70  2163.33
69  2166.32
68  2016.65
67  2079.11
66  1894.85
65  1887.762
64  2418.26
63  2043.6
62  2131.25
61  2217.61
60  2047.079
59  1841.7
58  1848.39
57  2134.02
56  1970.83
55  2073.49
54  2260.53
53  2301.36
52  2374.46
51  2414.34
50  2388.76
49  2308.8
48  2308.41
47  2242.88
46  2274.74
45  2169.03
44  2023.92
43  2061.63
42  1801.5
41  1749.889
40  1728.14
39  1654.77
38  1579.27
37  1400.052
36  1582.08
35  1450.72
34  1510.53
33  1750.57
32  1766.16
31  1943.29
30  2143.95
29  2493.72
28  3674.34
27  5781.81
26  6539.25
25  4680.63
24  2278.67
23  1065.26
22  676.412
21  588.233
20  736.868
19  688.692
18  982.933
17  1185.94
16  1625.13
15  1703.81
14  1596.56
13  1631.6
12  1414.21
11  1092.83
10  1264.504
9  1595.17
8  1460.79
7  1262.225
6  678.07
5  216.602
4  62.0993
3  45.2204
2  37.0436
1  5.66035
0  13.46557

# Region:            C1s
# Acquisition Date:  10/30/19 23:25:20 UTC
# Analysis Method:   XPS
# Analyzer:          Phoibos
# Analyzer Lens:     MediumArea:1.5kV
# Analyzer Slit:     5:7x20\B:open
# Scan Mode:         FixedAnalyzerTransmission
# Curves/Scan:       1
# Values/Curve:      151
# Dwell Time:        0.1
# Excitation Energy: 1486.71
# Binding Energy:    295
# Pass Energy:       10
# Bias Voltage:      90
# Detector Voltage:  1900
# Eff. Workfunction: 4.395
# Source:            Focus
# Comment:
#
# Cycle: 0
# Number of Scans: 15
#
# Cycle: 0, Curve: 0
# Acquisition Date: 10/30/19 23:25:20 UTC
#
# ColumnLabels: energy counts/s
#
295  793.528
294.9  759.963
294.8  789.57
294.7  769.7643
294.6  760.649
294.5  793.49
294.4  801.6796
294.3  775.931
294.2  801.685
294.1  819.635
294  820.117
293.9  808.891
293.8  834.073
293.7  797.48
293.6  795.941
293.5  818.067
293.4  770.974
293.3  797.718
293.2  792.048
293.1  781.95
293  772.751
292.9  719.023
292.8  753.157
292.7  729.627
292.6  721.372
292.5  706.577
292.4  737.67
292.3  765.4638
292.2  744.569
292.1  733.18
292  709.207
291.9  772.42
291.8  718.155
291.7  699.364
291.6  740.757
291.5  726.386
291.4  735.325
291.3  753.273
291.2  737.997
291.1  722.056
291  755.091
290.9  708.083
290.8  721.569
290.7  762.429
290.6  732.156
290.5  776.177
290.4  800.775
290.3  789.6055
290.2  773.882
290.1  825.629
290  848.425
289.9  861.69
289.8  863.19
289.7  895.019
289.6  915.998
289.5  925.096
289.4  866.938
289.3  843.884
289.2  845.279
289.1  876.661
289  899.803
288.9  860.539
288.8  858.398
288.7  880.476
288.6  857.692
288.5  855.82
288.4  834.8601
288.3  913.5429
288.2  860.327
288.1  905.123
288  919.051
287.9  959.346
287.8  1044.44
287.7  1079.08
287.6  1124.71
287.5  1162.94
287.4  1259.47
287.3  1322.33
287.2  1318.11
287.1  1329.39
287  1343.61
286.9  1382.56
286.8  1357.173
286.7  1396.14
286.6  1466.42
286.5  1504.35
286.4  1691.24
286.3  2028.19
286.2  2425.78
286.1  2840.69
286  3308.86
285.9  3837.17
285.8  4368.57
285.7  4819.11
285.6  5162.56
285.5  5427.399
285.4  5367.823
285.3  5122.74
285.2  4686.32
285.1  4134.93
285  3504.7
284.9  2897.01
284.8  2422.06
284.7  1907.709
284.6  1559.4
284.5  1269.54
284.4  1074.39
284.3  948.568
284.2  870.167
284.1  852.44
284  815.996
283.9  820.2813
283.8  753.462
283.7  771.793
283.6  745.636
283.5  767.801
283.4  760.474
283.3  737.455
283.2  748.159
283.1  768.106
283  713.337
282.9  682.416
282.8  739.148
282.7  729.407
282.6  728.267
282.5  709.035
282.4  726.557
282.3  732.041
282.2  716.09
282.1  733.928
282  749.21
281.9  738.206
281.8  733.368
281.7  714.587
281.6  738.3689
281.5  720.663
281.4  727.17
281.3  709.841
281.2  691.501
281.1  694.965
281  706.0744
280.9  701.611
280.8  668.837
280.7  702.2089
280.6  679.467
280.5  695.721
280.4  725.8
280.3  690.43
280.2  723.459
280.1  738.095
280  699.722

# Region:            O1s
# Acquisition Date:  10/30/19 23:39:34 UTC
# Analysis Method:   XPS
# Analyzer:          Phoibos
# Analyzer Lens:     MediumArea:1.5kV
# Analyzer Slit:     5:7x20\B:open
# Scan Mode:         FixedAnalyzerTransmission
# Curves/Scan:       1
# Values/Curve:      491
# Dwell Time:        0.1
# Excitation Energy: 1486.71
# Binding Energy:    570
# Pass Energy:       10
# Bias Voltage:      90
# Detector Voltage:  1900
# Eff. Workfunction: 4.395
# Source:            Focus
# Comment:
#
# Cycle: 0
# Number of Scans: 15
#
# Cycle: 0, Curve: 0
# Acquisition Date: 10/30/19 23:39:34 UTC
#
# ColumnLabels: energy counts/s
#
570  2281.43
569.9  2306.74
569.8  2345.05
569.7  2279.47
569.6  2268.81
569.5  2283.83
569.4  2267.01
569.3  2236.028
569.2  2269.68
569.1  2286.92
569  2280.81
568.9  2256.55
568.8  2269.88
568.7  2240.63
568.6  2224.82
568.5  2194.04
568.4  2229.99
568.3  2219.89
568.2  2263.52
568.1  2229.26
568  2215.29
567.9  2196.8
567.8  2221.79
567.7  2209.21
567.6  2239.41
567.5  2224.03
567.4  2189.94
567.3  2248.04
567.2  2138.15
567.1  2164.3
567  2197.93
566.9  2197.2
566.8  2189.39
566.7  2180.64
566.6  2168.84
566.5  2234.89
566.4  2221.81
566.3  2173.96
566.2  2194.48
566.1  2195.63
566  2208.57
565.9  2241.03
565.8  2226.34
565.7  2243.64
565.6  2225.174
565.5  2173.573
565.4  2211.485
565.3  2225.7
565.2  2237.7
565.1  2289.67
565  2270.64
564.9  2225.57
564.8  2294.36
564.7  2337.808
564.6  2236.219
564.5  2269.68
564.4  2253.2
564.3  2292.81
564.2  2298.3
564.1  2303.34
564  2299.52
563.9  2315.4
563.8  2273.7
563.7  2261.524
563.6  2267.64
563.5  2315.04
563.4  2274.074
563.3  2291.49
563.2  2287.11
563.1  2267.84
563  2322.03
562.9  2324.07
562.8  2384.89
562.7  2347.1
562.6  2359.74
562.5  2420.89
562.4  2415.24
562.3  2376.58
562.2  2320.58
562.1  2356.53
562  2386.38
561.9  2378.51
561.8  2351.21
561.7  2454.223
561.6  2418.81
561.5  2386.44
561.4  2368.82
561.3  2385.81
561.2  2333.82
561.1  2450.53
561  2456.56
560.9  2447.293
560.8  2440.35
560.7  2411.23
560.6  2420.81
560.5  2459.08
560.4  2427.43
560.3  2449.09
560.2  2586.59
560.1  2513.66
560  2494.56
559.9  2609.56
559.8  2524.46
559.7  2536.99
559.6  2499.04
559.5  2530.97
559.4  2504.65
559.3  2518.59
559.2  2573.72
559.1  2619.35
559  2495.69
558.9  2531.55
558.8  2530.97
558.7  2579.355
558.6  2568.02
558.5  2550.17
558.4  2504.46
558.3  2574.54
558.2  2578.18
558.1  2542.66
558  2592.06
557.9  2647.16
557.8  2603.42
557.7  2607.61
557.6  2583.21
557.5  2615
557.4  2578.81
557.3  2607.6
557.2  2615.98
557.1  2621.89
557  2572.83
556.9  2706.11
556.8  2681.82
556.7  2716.83
556.6  2682.425
556.5  2704.91
556.4  2781.08
556.3  2751.74
556.2  2692.915
556.1  2797.03
556  2762.73
555.9  2727.13
555.8  2765.08
555.7  2711.95
555.6  2729.556
555.5  2727.58
555.4  2702.87
555.3  2736.72
555.2  2777.14
555.1  2682.79
555  2716.56
554.9  2719
554.8  2663.68
554.7  2660.75
554.6  2688.67
554.5  2700.8
554.4  2704.251
554.3  2646.29
554.2  2598.48
554.1  2555.86
554  2655.8
553.9  2575.52
553.8  2603.22
553.7  2540.7
553.6  2570.81
553.5  2563.8
553.4  2494.18
553.3  2527.83
553.2  2499.23
553.1  2510.08
553  2534.29
552.9  2532.44
552.8  2472.36
552.7  2431.39
552.6  2389.87
552.5  2382.97
552.4  2440.21
552.3  2366.96
552.2  2382.85
552.1  2422.701
552  2381.86
551.9  2311.98
551.8  2296.83
551.7  2323.87
551.6  2352.78
551.5  2213.31
551.4  2195.14
551.3  2327.54
551.2  2233.465
551.1  2239.58
551  2257.15
550.9  2215.31
550.8  2241.47
550.7  2255.23
550.6  2226.16
550.5  2202.05
550.4  2189.56
550.3  2137.84
550.2  2119.07
550.1  2115.21
550  2138.49
549.9  2151.5
549.8  2205.76
549.7  2246.17
549.6  2154.67
549.5  2140.37
549.4  2130.98
549.3  2093.18
549.2  2106.324
549.1  2156.796
549  2125.89
548.9  2028.55
548.8  2088.55
548.7  2064.43
548.6  2097.27
548.5  2138.09
548.4  2068
548.3  2037.84
548.2  2031.684
548.1  2016.32
548  2002.87
547.9  1956.18
547.8  1951.24
547.7  1922.88
547.6  1913.136
547.5  1942.12
547.4  1923.3
547.3  1895.42
547.2  1937.27
547.1  1883.31
547  1833.84
546.9  1856.41
546.8  1845.38
546.7  1837.02
546.6  1798.308
546.5  1779.5
546.4  1703.47
546.3  1707.69
546.2  1758.36
546.1  1742.21
546  1708.26
545.9  1690.79
545.8  1717.085
545.7  1692.65
545.6  1691.85
545.5  1690.69
545.4  1633.25
545.3  1624.53
545.2  1629.84
545.1  1611.84
545  1658.86
544.9  1571.71
544.8  1559.99
544.7  1516.23
544.6  1510.53
544.5  1502.8
544.4  1539.61
544.3  1464.08
544.2  1425.71
544.1  1395.903
544  1352.1
543.9  1351.54
543.8  1304.57
543.7  1350.6
543.6  1296.76
543.5  1211.49
543.4  1254.94
543.3  1231.44
543.2  1225.79
543.1  1222.68
543  1156.96
542.9  1093
542.8  1117.103
542.7  1146.95
542.6  1125.33
542.5  1117.99
542.4  1078
542.3  1088.54
542.2  1076.956
542.1  1036.23
542  1080.34
541.9  1083.86
541.8  1032.33
541.7  991.444
541.6  1013.15
541.5  1006.94
541.4  1016.97
541.3  1025.86
541.2  958.574
541.1  947.349
541  957.853
540.9  972.886
540.8  976.1673
540.7  945.46
540.6  940.229
540.5  989.5117
540.4  983.019
540.3  963.878
540.2  870.452
540.1  920.186
540  937.128
539.9  944.121
539.8  907.019
539.7  937.103
539.6  934.0639
539.5  957.157
539.4  903.452
539.3  883.532
539.2  893.057
539.1  933.922
539  929.313
538.9  897.5588
538.8  874.409
538.7  870.5946
538.6  927.001
538.5  909.797
538.4  896.25
538.3  913.817
538.2  901.6844
538.1  897.963
538  939.037
537.9  960.388
537.8  953.585
537.7  943.5298
537.6  899.529
537.5  894.569
537.4  922.893
537.3  928.533
537.2  914.943
537.1  948.687
537  957.53
536.9  945.128
536.8  923.802
536.7  958.387
536.6  957.062
536.5  994.042
536.4  956.064
536.3  925.035
536.2  989.927
536.1  989.774
536  980.629
535.9  1038.19
535.8  1054.87
535.7  1057.05
535.6  1105.6
535.5  1171.58
535.4  1232.24
535.3  1331.33
535.2  1447.187
535.1  1637.12
535  1877.56
534.9  2144.7
534.8  2500.98
534.7  3038.5
534.6  3730.26
534.5  4650.1
534.4  5604.07
534.3  6860.064
534.2  8353.21
534.1  9852.37
534  11475.058
533.9  13004.106
533.8  14463.419
533.7  15438.179
533.6  16167.127
533.5  16577.897
533.4  16303.044
533.3  15637.045
533.2  14648.879
533.1  13472.659
533  12033.515
532.9  10642.84
532.8  9375.35
532.7  7954.43
532.6  6727.74
532.5  5573.29
532.4  4618.276
532.3  3863.12
532.2  3223.68
532.1  2806.76
532  2356.526
531.9  2146.1
531.8  1911.158
531.7  1741.85
531.6  1588.03
531.5  1496.39
531.4  1390.97
531.3  1295.14
531.2  1204.2
531.1  1199.9
531  1167.37
530.9  1076.82
530.8  1093.44
530.7  1002.25
530.6  1046.31
530.5  1016.65
530.4  977.998
530.3  935.105
530.2  968.885
530.1  904.264
530  923.071
529.9  933.305
529.8  926.261
529.7  895.8822
529.6  857.841
529.5  904.856
529.4  910.406
529.3  857.2003
529.2  848.712
529.1  882.519
529  922.184
528.9  885.518
528.8  894.266
528.7  869.009
528.6  854.309
528.5  869.4658
528.4  905.761
528.3  853.239
528.2  832.132
528.1  882.323
528  871.665
527.9  878.934
527.8  897.173
527.7  862.193
527.6  818.976
527.5  840.155
527.4  877.692
527.3  847.4839
527.2  830.372
527.1  854.77
527  823.653
526.9  833.785
526.8  829.669
526.7  796.584
526.6  823.666
526.5  861.58
526.4  834.478
526.3  806.585
526.2  850.791
526.1  823.2533
526  833.2921
525.9  832.0307
525.8  860.879
525.7  803.254
525.6  797.428
525.5  843.057
525.4  832.875
525.3  858.859
525.2  799.366
525.1  817.775
525  803.364
524.9  826.713
524.8  803.18
524.7  800.332
524.6  861.437
524.5  863.6117
524.4  826.782
524.3  833.621
524.2  824.609
524.1  834.711
524  820.146
523.9  847.112
523.8  852.737
523.7  812.692
523.6  824.7892
523.5  851.044
523.4  810.661
523.3  830.572
523.2  847.645
523.1  864.73
523  805.16
522.9  802.599
522.8  845.336
522.7  854.814
522.6  826.91
522.5  824.054
522.4  827.072
522.3  825.645
522.2  803.41
522.1  818.791
522  842.35
521.9  820.112
521.8  797.009
521.7  823.606
521.6  847.998
521.5  837.484
521.4  842.501
521.3  863.262
521.2  842.035
521.1  790.228
521  841.954

# Region:            Si2p
# Acquisition Date:  10/30/19 23:51:53 UTC
# Analysis Method:   XPS
# Analyzer:          Phoibos
# Analyzer Lens:     MediumArea:1.5kV
# Analyzer Slit:     5:7x20\B:open
# Scan Mode:         FixedAnalyzerTransmission
# Curves/Scan:       1
# Values/Curve:      421
# Dwell Time:        0.1
# Excitation Energy: 1486.71
# Binding Energy:    137
# Pass Energy:       10
# Bias Voltage:      90
# Detector Voltage:  1900
# Eff. Workfunction: 4.395
# Source:            Focus
# Comment:
#
# Cycle: 0
# Number of Scans: 15
#
# Cycle: 0, Curve: 0
# Acquisition Date: 10/30/19 23:51:53 UTC
#
# ColumnLabels: energy counts/s
#
137  376.605
136.9  383.1
136.8  398.035
136.7  378.247
136.6  364.832
136.5  392.005
136.4  366.161
136.3  379.136
136.2  362.647
136.1  357.2367
136  371.347
135.9  363.7667
135.8  394.493
135.7  381.534
135.6  386.407
135.5  379.12
135.4  389.553
135.3  372.52
135.2  368.457
135.1  394.429
135  407.345
134.9  388.75
134.8  398.489
134.7  396.426
134.6  403.872
134.5  391.27
134.4  352.69
134.3  339.503
134.2  383.956
134.1  368.8071
134  349.805
133.9  365.648
133.8  379.325
133.7  381.762
133.6  382.5169
133.5  340.444
133.4  355.847
133.3  388.892
133.2  390.155
133.1  391.379
133  364.644
132.9  362.824
132.8  359.94
132.7  402.0251
132.6  395.943
132.5  391.689
132.4  389.467
132.3  384.039
132.2  396.644
132.1  394.328
132  386.725
131.9  366.167
131.8  413.657
131.7  406.61
131.6  371.396
131.5  392.947
131.4  388.99
131.3  409.988
131.2  411.9125
131.1  402.548
131  409.09
130.9  412.128
130.8  395.1
130.7  396.83
130.6  403.2525
130.5  401.186
130.4  398.051
130.3  414.273
130.2  404.979
130.1  405.969
130  447.9998
129.9  423.242
129.8  434.758
129.7  420.9826
129.6  415.103
129.5  425.719
129.4  414.654
129.3  424.707
129.2  411.304
129.1  445.825
129  435.208
128.9  435.81
128.8  418.475
128.7  434.003
128.6  441.963
128.5  437.94
128.4  430.555
128.3  412.04
128.2  469.201
128.1  478.926
128  478.935
127.9  454.897
127.8  485.506
127.7  463.635
127.6  480.863
127.5  465.759
127.4  475.355
127.3  465.562
127.2  503.8017
127.1  456.447
127  432.048
126.9  418.199
126.8  456.366
126.7  472.606
126.6  468.109
126.5  461.571
126.4  441.199
126.3  461.824
126.2  462.664
126.1  436.142
126  463.126
125.9  455.058
125.8  456.626
125.7  471.387
125.6  457.204
125.5  471.486
125.4  438.776
125.3  462.4642
125.2  440.688
125.1  475.91
125  456.309
124.9  444.108
124.8  451.197
124.7  439.68
124.6  457.698
124.5  443.78
124.4  439.816
124.3  454.215
124.2  461.961
124.1  485.825
124  471.409
123.9  447.826
123.8  428.972
123.7  420.128
123.6  434.659
123.5  454.241
123.4  467.9403
123.3  431.918
123.2  440.943
123.1  427.521
123  435.143
122.9  448.159
122.8  426.661
122.7  459.294
122.6  419.595
122.5  410.832
122.4  441.434
122.3  402.448
122.2  421.0812
122.1  433.718
122  433.73
121.9  397.438
121.8  410.783
121.7  383.581
121.6  395.229
121.5  409.1
121.4  394.2451
121.3  396.281
121.2  399.643
121.1  394.816
121  392.598
120.9  398.4202
120.8  424.192
120.7  390.384
120.6  400.667
120.5  374.105
120.4  364.262
120.3  396.2705
120.2  379.649
120.1  383.116
120  358.167
119.9  362.874
119.8  347.042
119.7  382.738
119.6  403.298
119.5  380.808
119.4  387.295
119.3  389.009
119.2  383.757
119.1  365.955
119  365.996
118.9  358.744
118.8  334.228
118.7  343.611
118.6  372.271
118.5  348.846
118.4  334.464
118.3  319.435
118.2  325.723
118.1  326.338
118  333.366
117.9  317.971
117.8  305.598
117.7  335.618
117.6  308.874
117.5  308.242
117.4  333.853
117.3  346.821
117.2  308.3007
117.1  294.4353
117  303.074
116.9  299.492
116.8  282.337
116.7  291.434
116.6  302.355
116.5  294.343
116.4  289.772
116.3  274.782
116.2  277.615
116.1  269.947
116  277.935
115.9  260.4239
115.8  273.649
115.7  265.529
115.6  244.2379
115.5  254.211
115.4  245.072
115.3  271.0411
115.2  236.59
115.1  242.812
115  247.462
114.9  255.752
114.8  221.282
114.7  237.131
114.6  229.302
114.5  214.723
114.4  213.15
114.3  204.3596
114.2  220.347
114.1  211.824
114  193.8777
113.9  191.878
113.8  202.258
113.7  193.447
113.6  187.217
113.5  181.25
113.4  197.135
113.3  180.918
113.2  166.422
113.1  169.206
113  168.035
112.9  165.846
112.8  161.849
112.7  162.817
112.6  142.408
112.5  141.4392
112.4  151.649
112.3  140.887
112.2  148.55
112.1  152.751
112  153.335
111.9  149.925
111.8  147.186
111.7  137.671
111.6  137.412
111.5  139.729
111.4  147.655
111.3  132.764
111.2  154.491
111.1  139.719
111  150.501
110.9  144.09
110.8  137.041
110.7  129.168
110.6  137.667
110.5  131.555
110.4  145.311
110.3  129.2687
110.2  124.488
110.1  125.9986
110  135.953
109.9  140.735
109.8  148.604
109.7  136.541
109.6  129.41
109.5  137.9695
109.4  136.982
109.3  138.852
109.2  126.875
109.1  131.6941
109  141.698
108.9  138.805
108.8  135.595
108.7  134.061
108.6  120.244
108.5  131.214
108.4  131.957
108.3  126.509
108.2  134.257
108.1  129.364
108  126.303
107.9  134.1383
107.8  143.39
107.7  142.848
107.6  131.876
107.5  143.956
107.4  145.615
107.3  123.041
107.2  124.395
107.1  129.511
107  140.667
106.9  133.779
106.8  133.367
106.7  142.284
106.6  144.0017
106.5  149.999
106.4  149.406
106.3  151.321
106.2  186.869
106.1  180.273
106  179.111
105.9  234.583
105.8  255.696
105.7  328.798
105.6  421.399
105.5  500.859
105.4  620.911
105.3  786.014
105.2  959.812
105.1  1151.82
105  1433.12
104.9  1734.64
104.8  1968.576
104.7  2230.4
104.6  2451.25
104.5  2732.56
104.4  2862.35
104.3  2935.7
104.2  3034.78
104.1  2991.89
104  2934.9
103.9  2777.18
103.8  2534.58
103.7  2274.64
103.6  1937.57
103.5  1761.15
103.4  1581.26
103.3  1410.08
103.2  1292.55
103.1  1179.466
103  1148.247
102.9  1096.54
102.8  1115.01
102.7  1027.67
102.6  1011.86
102.5  933.422
102.4  823.726
102.3  692.12
102.2  576.91
102.1  461.4146
102  361.521
101.9  293.227
101.8  220.108
101.7  195.285
101.6  174.241
101.5  153.189
101.4  154.686
101.3  148.2332
101.2  142.2381
101.1  136.482
101  125.697
100.9  138.683
100.8  128.124
100.7  136.3024
100.6  138.627
100.5  153.829
100.4  147.919
100.3  137.888
100.2  142.837
100.1  158.222
100  153.404
99.9  157.829
99.8  157.815
99.7  146.621
99.6  156.205
99.5  125.894
99.4  127.903
99.3  141.173
99.2  132.496
99.1  115.755
99  136.961
98.9  128.366
98.8  121.134
98.7  135.098
98.6  133.829
98.5  108.816
98.4  127.893
98.3  135.337
98.2  122.1915
98.1  134.183
98  123.893
97.9  125.434
97.8  143.832
97.7  133.742
97.6  119.119
97.5  121.947
97.4  123.133
97.3  124.774
97.2  122.909
97.1  122.507
97  126.728
96.9  128.0954
96.8  136.5324
96.7  121.402
96.6  135.095
96.5  135.047
96.4  117.768
96.3  143.092
96.2  118.135
96.1  126.46
96  116.52
95.9  112.938
95.8  108.121
95.7  104.676
95.6  126.619
95.5  119.843
95.4  113.007
95.3  122.189
95.2  133.402
95.1  116.637
95  132.512

# Group:             Ajuste altura
#
# Group:             Spectrum Group 5
#
# Region:            C1s
# Acquisition Date:  10/31/19 00:04:10 UTC
# Analysis Method:   XPS
# Analyzer:          Phoibos
# Analyzer Lens:     MediumArea:1.5kV
# Analyzer Slit:     5:7x20\B:open
# Scan Mode:         FixedAnalyzerTransmission
# Curves/Scan:       1
# Values/Curve:      151
# Dwell Time:        0.1
# Excitation Energy: 1486.71
# Binding Energy:    295
# Pass Energy:       10
# Bias Voltage:      90
# Detector Voltage:  1900
# Eff. Workfunction: 4.395
# Source:            Focus
# Comment:
#
# Cycle: 0
# Number of Scans: 15
#
# Cycle: 0, Curve: 0
# Acquisition Date: 10/31/19 00:04:10 UTC
#
# ColumnLabels: energy counts/s
#
295  780.718
294.9  755.338
294.8  765.52
294.7  785.661
294.6  771.123
294.5  776.171
294.4  797.846
294.3  794.044
294.2  810.502
294.1  823.0539
294  788.227
293.9  786.92
293.8  818.52
293.7  794.1592
293.6  804.4025
293.5  737.142
293.4  759.33
293.3  735.287
293.2  771.018
293.1  767.74
293  760.544
292.9  767.669
292.8  725.658
292.7  743.357
292.6  749.165
292.5  735.555
292.4  720.587
292.3  712.545
292.2  736.172
292.1  711.203
292  746.088
291.9  730.783
291.8  716.264
291.7  689.477
291.6  697.394
291.5  700.134
291.4  741.4304
291.3  745.551
291.2  718.27
291.1  710.365
291  729.308
290.9  721.608
290.8  747.122
290.7  727.461
290.6  743.708
290.5  758.1983
290.4  743.364
290.3  762.823
290.2  775.056
290.1  826.01
290  819.981
289.9  840.14
289.8  795.426
289.7  795.757
289.6  798.344
289.5  817.91
289.4  846.96
289.3  798.2431
289.2  854.689
289.1  849.343
289  828.426
288.9  829.966
288.8  841.375
288.7  859.301
288.6  837.23
288.5  822.998
288.4  850.891
288.3  842.755
288.2  854.419
288.1  864.75
288  880.863
287.9  931.607
287.8  957.144
287.7  1016.64
287.6  1054.71
287.5  1085.31
287.4  1160.64
287.3  1201.7
287.2  1196.22
287.1  1214.07
287  1236.57
286.9  1239.216
286.8  1275.13
286.7  1319.32
286.6  1407.53
286.5  1507.66
286.4  1612.21
286.3  1828.52
286.2  2127.07
286.1  2480.68
286  2879.47
285.9  3424.58
285.8  3843.84
285.7  4328.236
285.6  4668.09
285.5  4858.75
285.4  4881.3
285.3  4805.02
285.2  4467.65
285.1  4008.47
285  3618.75
284.9  3054.65
284.8  2527.55
284.7  2107.94
284.6  1710.77
284.5  1394.059
284.4  1183.19
284.3  1017.74
284.2  907.566
284.1  843.018
284  824.586
283.9  782.688
283.8  726.83
283.7  778.118
283.6  746.7644
283.5  695.809
283.4  694.241
283.3  705.544
283.2  683.614
283.1  707.7419
283  707.28
282.9  718.791
282.8  724.903
282.7  727.666
282.6  701.93
282.5  690.438
282.4  720.396
282.3  775.092
282.2  750.147
282.1  693.988
282  709.2
281.9  687.157
281.8  682.936
281.7  685.985
281.6  666.586
281.5  710.7185
281.4  690.843
281.3  719.382
281.2  697.978
281.1  674.281
281  725.246
280.9  746.23
280.8  669.8
280.7  672.266
280.6  653.37
280.5  659.215
280.4  704.6208
280.3  695.373
280.2  681.882
280.1  663.1934
280  714.963

# Region:            O1s
# Acquisition Date:  10/31/19 00:18:24 UTC
# Analysis Method:   XPS
# Analyzer:          Phoibos
# Analyzer Lens:     MediumArea:1.5kV
# Analyzer Slit:     5:7x20\B:open
# Scan Mode:         FixedAnalyzerTransmission
# Curves/Scan:       1
# Values/Curve:      491
# Dwell Time:        0.1
# Excitation Energy: 1486.71
# Binding Energy:    570
# Pass Energy:       10
# Bias Voltage:      90
# Detector Voltage:  1900
# Eff. Workfunction: 4.395
# Source:            Focus
# Comment:
#
# Cycle: 0
# Number of Scans: 15
#
# Cycle: 0, Curve: 0
[...]
97.4  59.2475
97.3  81.07927
97.2  81.1937
97.1  82.5217
97  77.5236
96.9  78.3754
96.8  77.1164
96.7  72.2812
96.6  59.9167
96.5  75.4018
96.4  74.5615
96.3  83.0783
96.2  80.8831
96.1  77.4048
96  82.831
95.9  75.3222
95.8  71.5795
95.7  71.4768
95.6  80.9737
95.5  72.2052
95.4  75.8302
95.3  87.44121
95.2  75.2274
95.1  77.1213
95  76.8312
94.9  77.8671
94.8  80.23
94.7  90.6041
94.6  81.5908
94.5  75.8775
94.4  77.7997
94.3  80.4543
94.2  64.4387
94.1  67.9021
94  78.5772
93.9  80.7801
93.8  86.0134
93.7  85.2011
93.6  81.6945
93.5  76.3974
93.4  82.523
93.3  81.0405
93.2  69.5762
93.1  77.8594
93  80.98612
92.9  82.9409
92.8  79.9743
92.7  75.1151
92.6  79.0289
92.5  75.7141
92.4  69.4532
92.3  80.2629
92.2  95.9787
92.1  79.5153
92  71.8625

# Group:             Spectrum Group 45
#
# Region:            C1s
# Acquisition Date:  10/31/19 01:41:57 UTC
# Analysis Method:   XPS
# Analyzer:          Phoibos
# Analyzer Lens:     MediumArea:1.5kV
# Analyzer Slit:     5:7x20\B:open
# Scan Mode:         FixedAnalyzerTransmission
# Curves/Scan:       1
# Values/Curve:      151
# Dwell Time:        0.1
# Excitation Energy: 1486.71
# Binding Energy:    295
# Pass Energy:       10
# Bias Voltage:      90
# Detector Voltage:  1900
# Eff. Workfunction: 4.395
# Source:            Focus
# Comment:
#
# Cycle: 0
# Number of Scans: 10
#
# Cycle: 0, Curve: 0
# Acquisition Date: 10/31/19 01:41:57 UTC
#
# ColumnLabels: energy counts/s
#
295  377.135
294.9  393.061
294.8  386.114
294.7  419.267
294.6  411.234
294.5  382.465
294.4  396.038
294.3  427.221
294.2  400.254
294.1  403.151
294  428.559
293.9  369.149
293.8  390.01
293.7  410.548
293.6  398.43
293.5  394.038
293.4  406.411
293.3  387.158
293.2  372.481
293.1  383.341
293  336.595
292.9  370.23
292.8  355.355
292.7  365.473
292.6  372.928
292.5  381.107
292.4  365.242
292.3  341.286
292.2  364.772
292.1  371.726
292  371.69
291.9  323.547
291.8  339.88
291.7  320.543
291.6  328.153
291.5  363.114
291.4  344.89
291.3  344.947
291.2  334.865
291.1  336.718
291  346.3842
290.9  372.536
290.8  350.4836
290.7  389.143
290.6  359.437
290.5  372.487
290.4  372.173
290.3  346.774
290.2  374.4149
290.1  383.708
290  378.522
289.9  380.754
289.8  386.5644
289.7  367.925
289.6  387.778
289.5  390.461
289.4  393.799
289.3  373.354
289.2  360.633
289.1  388.683
289  412.965
288.9  419.946
288.8  433.01
288.7  371.992
288.6  366.539
288.5  397.477
288.4  400.071
288.3  410.82
288.2  383.889
288.1  394.529
288  430.866
287.9  441.147
287.8  469.77
287.7  459.9214
287.6  504.389
287.5  548.483
287.4  561.209
287.3  555.883
287.2  559.571
287.1  584.559
287  596.155
286.9  584.84
286.8  635.533
286.7  643.229
286.6  710.296
286.5  802.431
286.4  877.121
286.3  996.0744
286.2  1114.29
286.1  1363.16
286  1595.639
285.9  1853.98
285.8  2078.34
285.7  2316.18
285.6  2543.56
285.5  2650.57
285.4  2764.238
285.3  2849.273
285.2  2747.28
285.1  2560.825
285  2361.86
284.9  1980.64
284.8  1668.35
284.7  1447.99
284.6  1153.5
284.5  954.078
284.4  762.51
284.3  626.065
284.2  517.978
284.1  465.286
284  420.36
283.9  412.825
283.8  399.985
283.7  387.83
283.6  359.453
283.5  354.119
283.4  352.389
283.3  339.583
283.2  357.162
283.1  343.785
283  341.249
282.9  362.493
282.8  379.508
282.7  357.417
282.6  358.405
282.5  315.054
282.4  317.178
282.3  345.2037
282.2  354.706
282.1  374.895
282  333.297
281.9  312.396
281.8  346.875
281.7  345.799
281.6  335.796
281.5  318.172
281.4  299.647
281.3  349.756
281.2  374.494
281.1  339.792
281  333.431
280.9  361.186
280.8  366.587
280.7  338.317
280.6  319.416
280.5  326.296
280.4  315.692
280.3  347.453
280.2  329.845
280.1  344.982
280  316.753

# Region:            O1s
# Acquisition Date:  10/31/19 01:46:16 UTC
# Analysis Method:   XPS
# Analyzer:          Phoibos
# Analyzer Lens:     MediumArea:1.5kV
# Analyzer Slit:     5:7x20\B:open
# Scan Mode:         FixedAnalyzerTransmission
# Curves/Scan:       1
# Values/Curve:      211
# Dwell Time:        0.1
# Excitation Energy: 1486.71
# Binding Energy:    542
# Pass Energy:       10
# Bias Voltage:      90
# Detector Voltage:  1900
# Eff. Workfunction: 4.395
# Source:            Focus
# Comment:
#
# Cycle: 0
# Number of Scans: 10
#
# Cycle: 0, Curve: 0
# Acquisition Date: 10/31/19 01:46:16 UTC
#
# ColumnLabels: energy counts/s
#
542  490.321
541.9  465.949
541.8  463.117
541.7  464.056
541.6  445.384
541.5  448.355
541.4  451.799
541.3  440.046
541.2  491.343
541.1  419.459
541  467.007
540.9  443.069
540.8  463.394
540.7  438.046
540.6  461.11
540.5  425.2794
540.4  443.455
540.3  407.388
540.2  433.45
540.1  453.322
540  414.884
539.9  416.194
539.8  437.142
539.7  426.007
539.6  443.783
539.5  443.001
539.4  428.283
539.3  426.821
539.2  400.798
539.1  431.187
539  406.1253
538.9  423.137
538.8  440.349
538.7  443.4452
538.6  397.851
538.5  394.905
538.4  413.571
538.3  431.0506
538.2  436.407
538.1  406.829
538  428.766
537.9  422.881
537.8  437.719
537.7  400.1738
537.6  422.334
537.5  429.562
537.4  442.406
537.3  414.635
537.2  427.759
537.1  438.815
537  429.37
536.9  468.934
536.8  437.359
536.7  437.8407
536.6  440.982
536.5  443.8097
536.4  407.555
536.3  441.858
536.2  445.811
536.1  442.344
536  427.895
535.9  441.708
535.8  462.611
535.7  445.768
535.6  472.69
535.5  495.634
535.4  523.252
535.3  571.044
535.2  623.978
535.1  652.329
535  738.639
534.9  856.281
534.8  977.4214
534.7  1171.68
534.6  1495.76
534.5  1756.65
534.4  2181.01
534.3  2714.95
534.2  3227.86
534.1  3818.4
534  4473.81
533.9  4936.53
533.8  5566.07
533.7  6096.6
533.6  6454.49
533.5  6642.05
533.4  6719.86
533.3  6563.14
533.2  6430.52
533.1  6179.3
533  5681.29
532.9  5215.54
532.8  4665.56
532.7  4196.47
532.6  3697.97
532.5  3093.73
532.4  2677.91
532.3  2235.29
532.2  1823
532.1  1565.04
532  1289.05
531.9  1105.2
531.8  1030.57
531.7  904.026
531.6  751.954
531.5  723.016
531.4  661.133
531.3  653.526
531.2  576.802
531.1  538.216
531  545.993
530.9  538.276
530.8  498.457
530.7  514.859
530.6  511.153
530.5  477.647
530.4  450.814
530.3  482.044
530.2  457.5759
530.1  423.932
530  455.184
529.9  434.568
529.8  447.558
529.7  408.155
529.6  419.277
529.5  405.5073
529.4  384.017
529.3  407.617
529.2  401.541
529.1  390.451
529  417.573
528.9  399.2751
528.8  403.009
528.7  409.361
528.6  395.709
528.5  386.801
528.4  386.291
528.3  377.536
528.2  395.419
528.1  392.828
528  378.068
527.9  399.756
527.8  386.638
527.7  402.89
527.6  385.405
527.5  388.475
527.4  414.2903
527.3  389.273
527.2  393.441
527.1  376.901
527  404.779
526.9  391.014
526.8  382.023
526.7  392.164
526.6  371.621
526.5  399.373
526.4  401.746
526.3  378.34
526.2  409.233
526.1  411.239
526  388.5942
525.9  369.812
525.8  403.358
525.7  417.828
525.6  397.1167
525.5  377.36
525.4  379.428
525.3  361.576
525.2  414.47
525.1  394.316
525  403.4287
524.9  422.58
524.8  401.539
524.7  384.309
524.6  382.2
524.5  384.187
524.4  372.952
524.3  383.034
524.2  377.585
524.1  408.331
524  395.923
523.9  372.47
523.8  386.654
523.7  371.243
523.6  356.809
523.5  372.552
523.4  379.02
523.3  383.189
523.2  404.839
523.1  374.437
523  385.3303
522.9  365.548
522.8  378.544
522.7  380.1189
522.6  381.3102
522.5  365.086
522.4  375.196
522.3  395.825
522.2  390.795
522.1  385.785
522  402.037
521.9  384.765
521.8  381.28
521.7  389.5462
521.6  355.146
521.5  383.201
521.4  401.804
521.3  395.454
521.2  415.994
521.1  353.5
521  362.827

# Region:            Si2p
# Acquisition Date:  10/31/19 01:51:19 UTC
# Analysis Method:   XPS
# Analyzer:          Phoibos
# Analyzer Lens:     MediumArea:1.5kV
# Analyzer Slit:     5:7x20\B:open
# Scan Mode:         FixedAnalyzerTransmission
# Curves/Scan:       1
# Values/Curve:      161
# Dwell Time:        0.1
# Excitation Energy: 1486.71
# Binding Energy:    108
# Pass Energy:       10
# Bias Voltage:      90
# Detector Voltage:  1900
# Eff. Workfunction: 4.395
# Source:            Focus
# Comment:
#
# Cycle: 0
# Number of Scans: 15
#
# Cycle: 0, Curve: 0
# Acquisition Date: 10/31/19 01:51:19 UTC
#
# ColumnLabels: energy counts/s
#
108  82.63428
107.9  72.4583
107.8  74.2693
107.7  66.9474
107.6  78.7752
107.5  83.18505
107.4  87.2198
107.3  79.7011
107.2  74.491
107.1  75.446
107  63.7081
106.9  81.0833
106.8  74.71569
106.7  74.3307
106.6  80.008
106.5  80.7468
106.4  74.7445
106.3  75.5083
106.2  82.3335
106.1  98.8122
106  111.397
105.9  104.7835
105.8  121.463
105.7  154.606
105.6  181.0296
105.5  207.257
105.4  270.574
105.3  340.191
105.2  430.5
105.1  514.468
105  603.015
104.9  728.575
104.8  843.538
104.7  941.512
104.6  1032.33
104.5  1090.16
104.4  1152.65
104.3  1259.46
104.2  1277.11
104.1  1247.64
104  1221.58
103.9  1216.92
103.8  1183.11
103.7  1074.48
103.6  989.616
103.5  878.323
103.4  784.3
103.3  773.474
103.2  735.791
103.1  701.8833
103  676.081
102.9  634.243
102.8  642.325
102.7  630.242
102.6  603.641
102.5  564.442
102.4  552.338
102.3  492.9458
102.2  416.95
102.1  335.0967
102  265.824
101.9  217.957
101.8  178.495
101.7  138.4675
101.6  118.5452
101.5  107.682
101.4  83.4358
101.3  90.3322
101.2  104.156
101.1  76.043
101  75.8556
100.9  80.3213
100.8  82.7205
100.7  68.8938
100.6  73.7451
100.5  85.40673
100.4  72.598
100.3  60.70354
100.2  71.0715
100.1  68.0537
100  60.9687
99.9  88.5188
99.8  75.6421
99.7  77.4392
99.6  80.6472
99.5  73.7276
99.4  55.8092
99.3  72.2254
99.2  69.6469
99.1  64.2017
99  68.7623
98.9  77.6184
98.8  69.473
98.7  79.4486
98.6  72.6226
98.5  69.0689
98.4  58.8196
98.3  67.77152
98.2  72.0334
98.1  72.4048
98  64.791
97.9  77.4428
97.8  60.4449
97.7  71.898
97.6  77.20497
97.5  69.10582
97.4  76.922
97.3  73.4019
97.2  73.157
97.1  74.0113
97  86.8493
96.9  68.8403
96.8  66.6449
96.7  62.4286
96.6  64.7196
96.5  74.2307
96.4  65.6924
96.3  67.7791
96.2  72.2742
96.1  76.0738
96  75.5915
95.9  66.6752
95.8  71.0549
95.7  69.417
95.6  73.8168
95.5  68.3763
95.4  69.6178
95.3  61.3861
95.2  66.7334
95.1  74.569
95  61.2252
94.9  72.5724
94.8  71.7656
94.7  71.4608
94.6  70.9977
94.5  69.4271
94.4  69.6078
94.3  54.9492
94.2  61.2018
94.1  67.1861
94  69.2541
93.9  74.995
93.8  65.6893
93.7  73.219
93.6  74.5753
93.5  69.8198
93.4  70.1094
93.3  54.66658
93.2  60.4052
93.1  72.8214
93  69.8005
92.9  79.5567
92.8  77.8745
92.7  73.6196
92.6  68.5528
92.5  75.53901
92.4  69.7175
92.3  65.587
92.2  70.4004
92.1  69.2999
92  61.9426

# Group:             Spectrum Group 55
#
# Region:            C1s
# Acquisition Date:  10/31/19 01:57:55 UTC
# Analysis Method:   XPS
# Analyzer:          Phoibos
# Analyzer Lens:     MediumArea:1.5kV
# Analyzer Slit:     5:7x20\B:open
# Scan Mode:         FixedAnalyzerTransmission
# Curves/Scan:       1
# Values/Curve:      151
# Dwell Time:        0.1
# Excitation Energy: 1486.71
# Binding Energy:    295
# Pass Energy:       10
# Bias Voltage:      90
# Detector Voltage:  1900
# Eff. Workfunction: 4.395
# Source:            Focus
# Comment:
#
# Cycle: 0
# Number of Scans: 10
#
# Cycle: 0, Curve: 0
# Acquisition Date: 10/31/19 01:57:55 UTC
#
# ColumnLabels: energy counts/s
#
295  237.592
294.9  227.609
294.8  244.456
294.7  249.264
294.6  229.997
294.5  238.358
294.4  265.408
294.3  268.35
294.2  251.724
294.1  216.362
294  247.853
293.9  268.25
293.8  251.591
293.7  250.563
293.6  259.361
293.5  234.698
293.4  220.7486
293.3  256.828
293.2  242.515
293.1  215.869
293  210.853
292.9  238.182
292.8  213.7266
292.7  231.848
292.6  244.006
292.5  228.449
292.4  215.01
292.3  216.571
292.2  236.731
292.1  218.538
292  199.0353
291.9  206.108
291.8  217.832
291.7  215.35
291.6  204.033
291.5  222.346
291.4  244.703
291.3  209.512
291.2  230.31
291.1  230.2558
291  224.405
290.9  206.414
290.8  218.7379
290.7  231.371
290.6  217.803
290.5  215.169
290.4  213.208
290.3  236.384
290.2  243.292
290.1  255.661
290  253.235
289.9  252.862
289.8  267.943
289.7  259.8327
289.6  268.286
289.5  258.084
289.4  278.217
289.3  303.026
289.2  266.852
289.1  247.31
289  282.918
288.9  262.455
288.8  253.15
288.7  262.516
288.6  297.293
288.5  273.945
288.4  266.595
288.3  273.616
288.2  257.922
288.1  253.844
288  270.0507
287.9  283.456
287.8  310.539
287.7  328.035
287.6  344.157
287.5  395.96
287.4  341.762
287.3  357.469
287.2  383.7339
287.1  403.209
287  431.798
286.9  407.061
286.8  433.359
286.7  475.705
286.6  478.283
286.5  549.367
286.4  642.362
286.3  735.856
286.2  865.002
286.1  1008.96
286  1178.47
285.9  1391.77
285.8  1612.97
285.7  1765.91
285.6  1975.62
285.5  2018.72
285.4  2068.73
285.3  2103.76
285.2  2048.71
285.1  1792.29
285  1590.05
284.9  1367.73
284.8  1146.18
284.7  981.757
284.6  748.282
284.5  587.325
284.4  480.688
284.3  382.319
284.2  329.044
284.1  300.388
284  259.961
283.9  247.31
283.8  249.991
283.7  217.22
283.6  219.796
283.5  191.253
283.4  193.422
283.3  220.997
283.2  232.248
283.1  220.614
283  227.569
282.9  257.764
282.8  214.732
282.7  198.698
282.6  219.127
282.5  222.72
282.4  225.977
282.3  195.283
282.2  209.599
282.1  209.97
282  210.8
281.9  220.186
281.8  213.795
281.7  241.034
281.6  217.898
281.5  214.309
281.4  200.002
281.3  218.912
281.2  224.28
281.1  213.6768
281  207.082
280.9  186.107
280.8  182.242
280.7  199.035
280.6  201.632
280.5  192.1881
280.4  199.616
280.3  206.959
280.2  207.193
280.1  232.163
280  226.45

# Region:            O1s
# Acquisition Date:  10/31/19 02:02:15 UTC
# Analysis Method:   XPS
# Analyzer:          Phoibos
# Analyzer Lens:     MediumArea:1.5kV
# Analyzer Slit:     5:7x20\B:open
# Scan Mode:         FixedAnalyzerTransmission
# Curves/Scan:       1
# Values/Curve:      211
# Dwell Time:        0.1
# Excitation Energy: 1486.71
# Binding Energy:    542
# Pass Energy:       10
# Bias Voltage:      90
# Detector Voltage:  1900
# Eff. Workfunction: 4.395
# Source:            Focus
# Comment:
#
# Cycle: 0
# Number of Scans: 10
#
# Cycle: 0, Curve: 0
# Acquisition Date: 10/31/19 02:02:15 UTC
#
# ColumnLabels: energy counts/s
#
542  321.848
541.9  308.348
541.8  331.498
541.7  320.849
541.6  329.297
541.5  319.907
541.4  354.53
541.3  320.529
541.2  291.778
541.1  329.1259
541  326.316
540.9  285.771
540.8  281.187
540.7  293.683
540.6  285.737
540.5  310.148
540.4  306.579
540.3  280.321
540.2  312.589
540.1  321.045
540  269.772
539.9  293.001
539.8  314.967
539.7  312.998
539.6  293.962
539.5  307.517
539.4  281.576
539.3  291.463
539.2  258.139
539.1  258.316
539  314.128
538.9  284.124
538.8  309.986
538.7  311.97
538.6  288.949
538.5  276.588
538.4  291.429
538.3  276.607
538.2  317.187
538.1  319.2702
538  288.195
537.9  258.942
537.8  257.645
537.7  271.738
537.6  317.104
537.5  308.462
537.4  266.114
537.3  302.48
537.2  329.341
537.1  278.805
537  309.11
536.9  335.012
536.8  310.294
536.7  316.593
536.6  292.403
536.5  316.921
536.4  295.844
536.3  310.354
536.2  287.872
536.1  280.232
536  300.726
535.9  291.892
535.8  300.8726
535.7  280.335
535.6  297.636
535.5  340.326
535.4  345.83
535.3  348.7425
535.2  340.496
535.1  387.364
535  479.196
534.9  497.177
534.8  607.318
534.7  683.761
534.6  793.97
534.5  917.35
534.4  1175.39
534.3  1403.39
534.2  1627.04
534.1  1907.02
534  2258.86
533.9  2610.89
533.8  2885.7
533.7  3095.55
533.6  3360.211
533.5  3538.7
533.4  3678.204
533.3  3778.25
533.2  3736.17
533.1  3680.98
533  3672.54
532.9  3501.44
532.8  3069.29
532.7  2863.6
532.6  2441.97
532.5  2103.15
532.4  1836.17
532.3  1542.25
532.2  1234.12
532.1  1084.34
532  959.344
531.9  836.596
531.8  699.624
531.7  583.493
531.6  548.299
531.5  467.7164
531.4  423.514
531.3  426.435
531.2  417.651
531.1  403.5642
531  384.717
530.9  361.302
530.8  318.072
530.7  321.574
530.6  309.147
530.5  316.182
530.4  306.195
530.3  300.562
530.2  290.622
530.1  289.348
530  277.557
529.9  302.752
529.8  287.523
529.7  313.045
529.6  273.445
529.5  279.119
529.4  280.295
529.3  261.226
529.2  249.051
529.1  269.412
529  285.353
528.9  287.926
528.8  250.167
528.7  267.653
528.6  260.201
528.5  273.872
528.4  278.746
528.3  243.991
528.2  275.08
528.1  288.036
528  292.284
527.9  256.153
527.8  257.328
527.7  265.7297
527.6  264
527.5  297.255
527.4  261.15
527.3  282.544
527.2  288.302
527.1  273.86
527  270.223
526.9  253.199
526.8  238.878
526.7  279.085
526.6  260.122
526.5  252.151
526.4  246.703
526.3  270.155
526.2  261.817
526.1  247.556
526  250.862
525.9  260.678
525.8  271.4384
525.7  259.286
525.6  254.7463
525.5  246.57
525.4  251.816
525.3  245.8662
525.2  238.804
525.1  257.757
525  261.194
524.9  259.634
524.8  261.093
524.7  247.6694
524.6  244.239
524.5  275.6
524.4  260.026
524.3  245.512
524.2  262.209
524.1  254.703
524  267.555
523.9  265.76
523.8  294.235
523.7  259.379
523.6  246.61
523.5  267.44
523.4  281.278
523.3  271.7471
523.2  274.146
523.1  243.312
523  237.583
522.9  239.627
522.8  243.3242
522.7  255.439
522.6  247.826
522.5  246.017
522.4  242.189
522.3  278.438
522.2  269.785
522.1  246.874
522  231.783
521.9  260.7746
521.8  255.038
521.7  261.835
521.6  260.3996
521.5  231.923
521.4  271.997
521.3  255.43
521.2  271.157
521.1  255.6389
521  250.582

# Region:            Si2p
# Acquisition Date:  10/31/19 02:07:19 UTC
# Analysis Method:   XPS
# Analyzer:          Phoibos
# Analyzer Lens:     MediumArea:1.5kV
# Analyzer Slit:     5:7x20\B:open
# Scan Mode:         FixedAnalyzerTransmission
# Curves/Scan:       1
# Values/Curve:      161
# Dwell Time:        0.1
# Excitation Energy: 1486.71
# Binding Energy:    108
# Pass Energy:       10
# Bias Voltage:      90
# Detector Voltage:  1900
# Eff. Workfunction: 4.395
# Source:            Focus
# Comment:
#
# Cycle: 0
# Number of Scans: 15
#
# Cycle: 0, Curve: 0
# Acquisition Date: 10/31/19 02:07:19 UTC
#
# ColumnLabels: energy counts/s
#
108  41.9382
107.9  43.50038
107.8  50.8523
107.7  46.2503
107.6  41.0781
107.5  41.7359
107.4  40.7234
107.3  45.7841
107.2  39.1457
107.1  46.8931
107  47.2704
106.9  49.8963
106.8  48.5662
106.7  48.5263
106.6  48.8234
106.5  44.7652
106.4  48.5362
106.3  51.8299
106.2  57.4468
106.1  59.445
106  62.5897
105.9  73.9646
105.8  72.5464
105.7  86.2805
105.6  100.098
105.5  106.818
105.4  138.166
105.3  170.276
105.2  210.43
105.1  229.0063
105  270.9508
104.9  323.777
104.8  393.234
104.7  433.663
104.6  461.295
104.5  552.156
104.4  565.771
104.3  591.066
104.2  608.67
104.1  581.9202
104  571.2546
103.9  587.637
103.8  540.9
103.7  537.348
103.6  503.459
103.5  511.9667
103.4  501.241
103.3  474.452
103.2  479.457
103.1  426.193
103  437.969
102.9  438.807
102.8  456.687
102.7  478.573
102.6  446.843
102.5  397.608
102.4  382.899
102.3  310.754
102.2  253.98
102.1  236.342
102  174.962
101.9  134.491
101.8  108.215
101.7  79.6191
101.6  64.9953
101.5  55.9802
101.4  56.3133
101.3  56.0801
101.2  48.2798
101.1  53.6198
101  50.8037
100.9  45.2246
100.8  50.0758
100.7  40.365
100.6  40.7564
100.5  49.8991
100.4  44.2031
100.3  45.7047
100.2  41.1154
100.1  53.9514
100  51.5869
99.9  48.5631
99.8  47.23431
99.7  50.1965
99.6  41.126
99.5  55.406
99.4  47.6345
99.3  45.6431
99.2  43.3175
99.1  42.5722
99  46.029
98.9  44.0617
98.8  45.584
98.7  49.1633
98.6  43.4578
98.5  40.829
98.4  37.5479
98.3  38.1035
98.2  42.1225
98.1  47.9617
98  46.23855
97.9  41.9137
97.8  43.7146
97.7  43.8187
97.6  45.3977
97.5  44.3096
97.4  38.85406
97.3  48.0442
97.2  55.7718
97.1  43.9099
97  31.8123
96.9  40.3736
96.8  44.0864
96.7  48.0248
96.6  42.2718
96.5  45.9339
96.4  38.6486
96.3  49.271
96.2  50.2788
96.1  48.1454
96  44.75678
95.9  51.9485
95.8  41.687
95.7  50.0909
95.6  50.9898
95.5  42.8906
95.4  46.0977
95.3  48.6794
95.2  48.6365
95.1  45.6906
95  45.937
94.9  46.6025
94.8  49.4376
94.7  41.22484
94.6  38.2018
94.5  37.5351
94.4  44.5792
94.3  39.42833
94.2  46.9884
94.1  51.2717
94  44.1013
93.9  51.4264
93.8  47.5917
93.7  56.0665
93.6  50.5747
93.5  40.4976
93.4  45.4036
93.3  45.7885
93.2  48.477
93.1  48.9061
93  44.077
92.9  35.8791
92.8  45.6977
92.7  50.8909
92.6  49.8091
92.5  49.0894
92.4  43.1302
92.3  37.9306
92.2  40.9262
92.1  31.4629
92  44.4896