File: Silicio2p/OxidoInfinito/OxidoInfinito_single 4.xy
# Created by:        SpecsLab Prodigy, Version 4.50.2-r79252
#
# XY-Serializer Export Settings:
#   Comment Prefix:           #
#   Output meta data:         yes
#   Energy Axis:              Binding Energy
#   Count Rate:               Counts per Second
#   Separate Scan Data:       no
#   Separate Channel Data:    no
#   External Channel Data:    yes
#   Transmission Function:    no
#   ErrorBar:                 no
#   Operation Results:        yes
#   Time Zone Format:         UTC
#
# Group:             Spectrum Group 0
#
# Region:            Si2p
# Acquisition Date:  10/30/19 23:51:53 UTC
# Analysis Method:   XPS
# Analyzer:          Phoibos
# Analyzer Lens:     MediumArea:1.5kV
# Analyzer Slit:     5:7x20\B:open
# Scan Mode:         FixedAnalyzerTransmission
# Curves/Scan:       1
# Values/Curve:      421
# Dwell Time:        0.1
# Excitation Energy: 1486.71
# Binding Energy:    137
# Pass Energy:       10
# Bias Voltage:      90
# Detector Voltage:  1900
# Eff. Workfunction: 4.395
# Source:            Focus
# Comment:
#
# Cycle: 0
# Number of Scans: 15
#
# Cycle: 0, Curve: 0
# Acquisition Date: 10/30/19 23:51:53 UTC
#
# ColumnLabels: energy counts/s
#
137  376.605
136.9  383.1
136.8  398.035
136.7  378.247
136.6  364.832
136.5  392.005
136.4  366.161
136.3  379.136
136.2  362.647
136.1  357.2367
136  371.347
135.9  363.7667
135.8  394.493
135.7  381.534
135.6  386.407
135.5  379.12
135.4  389.553
135.3  372.52
135.2  368.457
135.1  394.429
135  407.345
134.9  388.75
134.8  398.489
134.7  396.426
134.6  403.872
134.5  391.27
134.4  352.69
134.3  339.503
134.2  383.956
134.1  368.8071
134  349.805
133.9  365.648
133.8  379.325
133.7  381.762
133.6  382.5169
133.5  340.444
133.4  355.847
133.3  388.892
133.2  390.155
133.1  391.379
133  364.644
132.9  362.824
132.8  359.94
132.7  402.0251
132.6  395.943
132.5  391.689
132.4  389.467
132.3  384.039
132.2  396.644
132.1  394.328
132  386.725
131.9  366.167
131.8  413.657
131.7  406.61
131.6  371.396
131.5  392.947
131.4  388.99
131.3  409.988
131.2  411.9125
131.1  402.548
131  409.09
130.9  412.128
130.8  395.1
130.7  396.83
130.6  403.2525
130.5  401.186
130.4  398.051
130.3  414.273
130.2  404.979
130.1  405.969
130  447.9998
129.9  423.242
129.8  434.758
129.7  420.9826
129.6  415.103
129.5  425.719
129.4  414.654
129.3  424.707
129.2  411.304
129.1  445.825
129  435.208
128.9  435.81
128.8  418.475
128.7  434.003
128.6  441.963
128.5  437.94
128.4  430.555
128.3  412.04
128.2  469.201
128.1  478.926
128  478.935
127.9  454.897
127.8  485.506
127.7  463.635
127.6  480.863
127.5  465.759
127.4  475.355
127.3  465.562
127.2  503.8017
127.1  456.447
127  432.048
126.9  418.199
126.8  456.366
126.7  472.606
126.6  468.109
126.5  461.571
126.4  441.199
126.3  461.824
126.2  462.664
126.1  436.142
126  463.126
125.9  455.058
125.8  456.626
125.7  471.387
125.6  457.204
125.5  471.486
125.4  438.776
125.3  462.4642
125.2  440.688
125.1  475.91
125  456.309
124.9  444.108
124.8  451.197
124.7  439.68
124.6  457.698
124.5  443.78
124.4  439.816
124.3  454.215
124.2  461.961
124.1  485.825
124  471.409
123.9  447.826
123.8  428.972
123.7  420.128
123.6  434.659
123.5  454.241
123.4  467.9403
123.3  431.918
123.2  440.943
123.1  427.521
123  435.143
122.9  448.159
122.8  426.661
122.7  459.294
122.6  419.595
122.5  410.832
122.4  441.434
122.3  402.448
122.2  421.0812
122.1  433.718
122  433.73
121.9  397.438
121.8  410.783
121.7  383.581
121.6  395.229
121.5  409.1
121.4  394.2451
121.3  396.281
121.2  399.643
121.1  394.816
121  392.598
120.9  398.4202
120.8  424.192
120.7  390.384
120.6  400.667
120.5  374.105
120.4  364.262
120.3  396.2705
120.2  379.649
120.1  383.116
120  358.167
119.9  362.874
119.8  347.042
119.7  382.738
119.6  403.298
119.5  380.808
119.4  387.295
119.3  389.009
119.2  383.757
119.1  365.955
119  365.996
118.9  358.744
118.8  334.228
118.7  343.611
118.6  372.271
118.5  348.846
118.4  334.464
118.3  319.435
118.2  325.723
118.1  326.338
118  333.366
117.9  317.971
117.8  305.598
117.7  335.618
117.6  308.874
117.5  308.242
117.4  333.853
117.3  346.821
117.2  308.3007
117.1  294.4353
117  303.074
116.9  299.492
116.8  282.337
116.7  291.434
116.6  302.355
116.5  294.343
116.4  289.772
116.3  274.782
116.2  277.615
116.1  269.947
116  277.935
115.9  260.4239
115.8  273.649
115.7  265.529
115.6  244.2379
115.5  254.211
115.4  245.072
115.3  271.0411
115.2  236.59
115.1  242.812
115  247.462
114.9  255.752
114.8  221.282
114.7  237.131
114.6  229.302
114.5  214.723
114.4  213.15
114.3  204.3596
114.2  220.347
114.1  211.824
114  193.8777
113.9  191.878
113.8  202.258
113.7  193.447
113.6  187.217
113.5  181.25
113.4  197.135
113.3  180.918
113.2  166.422
113.1  169.206
113  168.035
112.9  165.846
112.8  161.849
112.7  162.817
112.6  142.408
112.5  141.4392
112.4  151.649
112.3  140.887
112.2  148.55
112.1  152.751
112  153.335
111.9  149.925
111.8  147.186
111.7  137.671
111.6  137.412
111.5  139.729
111.4  147.655
111.3  132.764
111.2  154.491
111.1  139.719
111  150.501
110.9  144.09
110.8  137.041
110.7  129.168
110.6  137.667
110.5  131.555
110.4  145.311
110.3  129.2687
110.2  124.488
110.1  125.9986
110  135.953
109.9  140.735
109.8  148.604
109.7  136.541
109.6  129.41
109.5  137.9695
109.4  136.982
109.3  138.852
109.2  126.875
109.1  131.6941
109  141.698
108.9  138.805
108.8  135.595
108.7  134.061
108.6  120.244
108.5  131.214
108.4  131.957
108.3  126.509
108.2  134.257
108.1  129.364
108  126.303
107.9  134.1383
107.8  143.39
107.7  142.848
107.6  131.876
107.5  143.956
107.4  145.615
107.3  123.041
107.2  124.395
107.1  129.511
107  140.667
106.9  133.779
106.8  133.367
106.7  142.284
106.6  144.0017
106.5  149.999
106.4  149.406
106.3  151.321
106.2  186.869
106.1  180.273
106  179.111
105.9  234.583
105.8  255.696
105.7  328.798
105.6  421.399
105.5  500.859
105.4  620.911
105.3  786.014
105.2  959.812
105.1  1151.82
105  1433.12
104.9  1734.64
104.8  1968.576
104.7  2230.4
104.6  2451.25
104.5  2732.56
104.4  2862.35
104.3  2935.7
104.2  3034.78
104.1  2991.89
104  2934.9
103.9  2777.18
103.8  2534.58
103.7  2274.64
103.6  1937.57
103.5  1761.15
103.4  1581.26
103.3  1410.08
103.2  1292.55
103.1  1179.466
103  1148.247
102.9  1096.54
102.8  1115.01
102.7  1027.67
102.6  1011.86
102.5  933.422
102.4  823.726
102.3  692.12
102.2  576.91
102.1  461.4146
102  361.521
101.9  293.227
101.8  220.108
101.7  195.285
101.6  174.241
101.5  153.189
101.4  154.686
101.3  148.2332
101.2  142.2381
101.1  136.482
101  125.697
100.9  138.683
100.8  128.124
100.7  136.3024
100.6  138.627
100.5  153.829
100.4  147.919
100.3  137.888
100.2  142.837
100.1  158.222
100  153.404
99.9  157.829
99.8  157.815
99.7  146.621
99.6  156.205
99.5  125.894
99.4  127.903
99.3  141.173
99.2  132.496
99.1  115.755
99  136.961
98.9  128.366
98.8  121.134
98.7  135.098
98.6  133.829
98.5  108.816
98.4  127.893
98.3  135.337
98.2  122.1915
98.1  134.183
98  123.893
97.9  125.434
97.8  143.832
97.7  133.742
97.6  119.119
97.5  121.947
97.4  123.133
97.3  124.774
97.2  122.909
97.1  122.507
97  126.728
96.9  128.0954
96.8  136.5324
96.7  121.402
96.6  135.095
96.5  135.047
96.4  117.768
96.3  143.092
96.2  118.135
96.1  126.46
96  116.52
95.9  112.938
95.8  108.121
95.7  104.676
95.6  126.619
95.5  119.843
95.4  113.007
95.3  122.189
95.2  133.402
95.1  116.637
95  132.512