File: Silicio2p/OxidoInfinito/OxidoInfinito_single 9.xy
# Created by:        SpecsLab Prodigy, Version 4.50.2-r79252
#
# XY-Serializer Export Settings:
#   Comment Prefix:           #
#   Output meta data:         yes
#   Energy Axis:              Binding Energy
#   Count Rate:               Counts per Second
#   Separate Scan Data:       no
#   Separate Channel Data:    no
#   External Channel Data:    yes
#   Transmission Function:    no
#   ErrorBar:                 no
#   Operation Results:        yes
#   Time Zone Format:         UTC
#
# Group:             Spectrum Group 5
#
# Region:            Si2p
# Acquisition Date:  10/31/19 00:30:44 UTC
# Analysis Method:   XPS
# Analyzer:          Phoibos
# Analyzer Lens:     MediumArea:1.5kV
# Analyzer Slit:     5:7x20\B:open
# Scan Mode:         FixedAnalyzerTransmission
# Curves/Scan:       1
# Values/Curve:      421
# Dwell Time:        0.1
# Excitation Energy: 1486.71
# Binding Energy:    137
# Pass Energy:       10
# Bias Voltage:      90
# Detector Voltage:  1900
# Eff. Workfunction: 4.395
# Source:            Focus
# Comment:
#
# Cycle: 0
# Number of Scans: 15
#
# Cycle: 0, Curve: 0
# Acquisition Date: 10/31/19 00:30:44 UTC
#
# ColumnLabels: energy counts/s
#
137  402.661
136.9  379.547
136.8  370.935
136.7  376.79
136.6  374.609
136.5  368.905
136.4  344.106
136.3  370.593
136.2  368.587
136.1  366.753
136  377.089
135.9  362.646
135.8  369.881
135.7  376.95
135.6  371.589
135.5  368.716
135.4  366.515
135.3  369.106
135.2  372.1568
135.1  380.047
135  358.709
134.9  368.699
134.8  370.121
134.7  394.486
134.6  406.2123
134.5  357.467
134.4  349.145
134.3  395.953
134.2  387.194
134.1  390.091
134  370.72
133.9  359.06
133.8  362.557
133.7  361.641
133.6  361.928
133.5  362.8968
133.4  361.389
133.3  390.458
133.2  374.852
133.1  361.987
133  363.516
132.9  387.295
132.8  367.975
132.7  394.676
132.6  365.345
132.5  348.861
132.4  363.908
132.3  376.117
132.2  392.717
132.1  364.509
132  374.877
131.9  360.001
131.8  349.03
131.7  395.424
131.6  380.306
131.5  374.748
131.4  381.762
131.3  368.89
131.2  377.953
131.1  399.882
131  370.292
130.9  384.91
130.8  403.3545
130.7  405.99
130.6  372.677
130.5  403.966
130.4  407.335
130.3  413.618
130.2  402.651
130.1  390.046
130  398.637
129.9  437.093
129.8  426.304
129.7  428.638
129.6  407.646
129.5  408.169
129.4  426.412
129.3  411.887
129.2  410.458
129.1  400.338
129  421.057
128.9  415.772
128.8  442.297
128.7  462.0635
128.6  445.611
128.5  412.426
128.4  416.659
128.3  426.491
128.2  422.7885
128.1  413.582
128  443.714
127.9  461.699
127.8  461.748
127.7  444.786
127.6  447.151
127.5  448.165
127.4  455.488
127.3  442.882
127.2  436.799
127.1  454.764
127  451.823
126.9  467.78
126.8  467.173
126.7  453.104
126.6  462.087
126.5  449.311
126.4  451.3904
126.3  482.483
126.2  431.404
126.1  446.646
126  433.9882
125.9  433.8011
125.8  451.706
125.7  454.593
125.6  467.109
125.5  462.477
125.4  458.7335
125.3  446.563
125.2  427.322
125.1  451.436
125  457.815
124.9  439.075
124.8  430.936
124.7  432.8023
124.6  422.382
124.5  428.641
124.4  449.118
124.3  445.183
124.2  433.374
124.1  422.919
124  456.955
123.9  466.317
123.8  421.71
123.7  436.703
123.6  426.743
123.5  425.409
123.4  423.848
123.3  425.6732
123.2  427.7695
123.1  415.192
123  420.448
122.9  413.945
122.8  411.14
122.7  406.436
122.6  406.649
122.5  414.262
122.4  432.736
122.3  393.281
122.2  410.647
122.1  387.931
122  367.16
121.9  389.568
121.8  407.382
121.7  402.2771
121.6  413.169
121.5  388.784
121.4  376.781
121.3  390.017
121.2  352.591
121.1  358.3624
121  397.112
120.9  382.1167
120.8  392.153
120.7  360.981
120.6  363.099
120.5  382.5
120.4  400.836
120.3  379.491
120.2  389.78
120.1  368.297
120  353.332
119.9  370.491
119.8  373.254
119.7  373.883
119.6  387.881
119.5  381.464
119.4  357.818
119.3  345.811
119.2  357.801
119.1  347.268
119  347.164
118.9  342.0576
118.8  345.349
118.7  329.78
118.6  352.693
118.5  346.687
118.4  327.127
118.3  316.109
118.2  308.377
118.1  311.475
118  341.037
117.9  327.315
117.8  317.2695
117.7  317.911
117.6  288.251
117.5  317.682
117.4  309.201
117.3  280.042
117.2  275.276
117.1  308.977
117  285.362
116.9  292.298
116.8  281.076
116.7  305.009
116.6  274.31
116.5  265.333
116.4  262.006
116.3  258.416
116.2  269.599
116.1  245.087
116  245.592
115.9  280.569
115.8  279.926
115.7  267.0905
115.6  246.267
115.5  245.213
115.4  252.248
115.3  237.832
115.2  244.8163
115.1  238.509
115  219.418
114.9  222.694
114.8  220.1819
114.7  232.371
114.6  216.102
114.5  211.455
114.4  187.726
114.3  191.24
114.2  200.871
114.1  179.629
114  196.668
113.9  198.381
113.8  189.494
113.7  175.539
113.6  199.541
113.5  179.946
113.4  170.265
113.3  159.553
113.2  162.658
113.1  175.148
113  157.292
112.9  145.948
112.8  154.081
112.7  131.3
112.6  135.609
112.5  135.696
112.4  144.639
112.3  151.483
112.2  136.609
112.1  151.627
112  163.8506
111.9  156.76
111.8  152.529
111.7  145.7393
111.6  140.416
111.5  151.314
111.4  143.201
111.3  129.53
111.2  143.888
111.1  137.277
111  142.282
110.9  127.896
110.8  124.897
110.7  138.307
110.6  131.482
110.5  133.996
110.4  121.9935
110.3  134.769
110.2  124.932
110.1  147.349
110  133.657
109.9  131.689
109.8  124.232
109.7  126.4833
109.6  116.907
109.5  124.251
109.4  139.684
109.3  140.059
109.2  130.282
109.1  116.981
109  116.883
108.9  123.93
108.8  120.39
108.7  118.058
108.6  123.397
108.5  127.231
108.4  123.874
108.3  123.127
108.2  132.055
108.1  128.841
108  123.08
107.9  127.633
107.8  124.001
107.7  132.995
107.6  138.815
107.5  132.89
107.4  140.453
107.3  132.493
107.2  129.867
107.1  134.851
107  130.842
106.9  131.735
106.8  140.534
106.7  147.098
106.6  144.541
106.5  139.711
106.4  134.335
106.3  158.144
106.2  166
106.1  173.897
106  187.638
105.9  225.735
105.8  262.362
105.7  316.594
105.6  401.338
105.5  514.661
105.4  630.061
105.3  804.176
105.2  969.984
105.1  1215.84
105  1420.66
104.9  1694.89
104.8  1944.29
104.7  2240.25
104.6  2445.197
104.5  2701.33
104.4  2774.82
104.3  2982.3
104.2  3025.66
104.1  2987.77
104  2964.26
103.9  2695.03
103.8  2501.6
103.7  2343.39
103.6  2035.36
103.5  1808.97
103.4  1566.04
103.3  1355.29
103.2  1257.28
103.1  1165.99
103  1102.29
102.9  1049.21
102.8  1044.55
102.7  965.882
102.6  958.469
102.5  883.4503
102.4  777.5176
102.3  702.977
102.2  611.171
102.1  485.812
102  372.991
101.9  306.369
101.8  251.004
101.7  225.546
101.6  188.152
101.5  167.229
101.4  149.3892
101.3  135.883
101.2  139.05
101.1  126.542
101  138.801
100.9  135.584
100.8  120.546
100.7  132.822
100.6  136.446
100.5  139.358
100.4  136.884
100.3  139.804
100.2  143.398
100.1  139.857
100  132.063
99.9  127.9279
99.8  143.588
99.7  142.117
99.6  131.879
99.5  132.831
99.4  122.862
99.3  120.936
99.2  131.571
99.1  122.482
99  120.295
98.9  121.825
98.8  122.526
98.7  121.791
98.6  130.908
98.5  136.531
98.4  120.158
98.3  123.86
98.2  123.868
98.1  138.171
98  132.21
97.9  115.741
97.8  119.191
97.7  127.71
97.6  124.774
97.5  120.708
97.4  118.2
97.3  120.306
97.2  134.1829
97.1  121.438
97  126.128
96.9  120.678
96.8  126.058
96.7  131.479
96.6  129.777
96.5  118.225
96.4  118.234
96.3  116.836
96.2  118.985
96.1  128.466
96  129.436
95.9  132.604
95.8  132.5165
95.7  125.587
95.6  112.101
95.5  127.276
95.4  117.446
95.3  109.046
95.2  124.553
95.1  135.931
95  128.699